block,condition,corr_resp,correct,fix_duration,goal,identity,resp_key,rt,stim_id,subj_id,task,trial_id
1,compared,none,1,0.510809476438887,NA,A,none,NaN,mst_257_A_l2.png,501,1_back,1
1,compared,k,1,0.878650334745327,NA,B,k,1.0109349169943,mst_257_B_l2.png,501,1_back,2
1,isolated,none,1,0.587455793583749,NA,A,none,NaN,mst_087_A_l1.png,501,1_back,3
1,compared,none,1,0.504313419002789,NA,A,none,NaN,mst_155_A_l1.png,501,1_back,4
1,compared,k,1,0.617245442841299,NA,B,k,0.870990875002462,mst_155_B_l1.png,501,1_back,5
1,isolated,none,1,0.864110897514968,NA,A,none,NaN,mst_113_A_l1.png,501,1_back,6
1,compared,none,1,0.870962177361453,NA,A,none,NaN,mst_261_A_l2.png,501,1_back,7
1,compared,k,1,0.713856533559212,NA,B,k,0.781917957996484,mst_261_B_l2.png,501,1_back,8
1,compared,none,1,0.974471783029536,NA,A,none,NaN,mst_010_A_l1.png,501,1_back,9
1,compared,k,1,0.906615088485633,NA,B,k,0.79197849999764,mst_010_B_l1.png,501,1_back,10
1,repeat,none,1,0.61170705211818,NA,A,none,NaN,mst_055_A_foil.png,501,1_back,11
1,repeat,j,1,0.840690323522659,NA,A,j,1.09543966600904,mst_055_A_foil.png,501,1_back,12
1,repeat,none,1,0.728372289097848,NA,A,none,NaN,mst_101_A_foil.png,501,1_back,13
1,repeat,j,1,0.565679841579336,NA,A,j,0.978780083998572,mst_101_A_foil.png,501,1_back,14
1,repeat,none,1,0.733346793400472,NA,A,none,NaN,mst_082_A_foil.png,501,1_back,15
1,repeat,j,1,0.874634351419982,NA,A,j,1.09031058299297,mst_082_A_foil.png,501,1_back,16
1,isolated,none,1,0.872981475387391,NA,A,none,NaN,mst_309_A_l2.png,501,1_back,17
1,isolated,none,1,0.94747455014446,NA,A,none,NaN,mst_205_A_l2.png,501,1_back,18
1,isolated,none,1,0.566906733568547,NA,A,none,NaN,mst_258_A_l2.png,501,1_back,19
1,repeat,none,1,0.528136967170664,NA,A,none,NaN,mst_685_A_foil.png,501,1_back,20
1,repeat,j,1,0.977773251517972,NA,A,j,0.976070459000766,mst_685_A_foil.png,501,1_back,21
1,isolated,none,1,0.737833002775827,NA,A,none,NaN,mst_056_A_l1.png,501,1_back,22
1,repeat,none,1,0.624435758977414,NA,A,none,NaN,mst_012_A_foil.png,501,1_back,23
1,repeat,j,1,0.962324618221258,NA,A,j,1.15415050000593,mst_012_A_foil.png,501,1_back,24
1,isolated,none,1,0.864662675280141,NA,A,none,NaN,mst_230_A_l2.png,501,1_back,25
1,repeat,none,1,0.743762025622191,NA,A,none,NaN,mst_572_A_foil.png,501,1_back,26
1,repeat,j,1,0.676220427934742,NA,A,j,0.840775583987124,mst_572_A_foil.png,501,1_back,27
1,isolated,none,1,0.718615331116788,NA,A,none,NaN,mst_329_A_l2.png,501,1_back,28
1,repeat,none,1,0.822681733635857,NA,A,none,NaN,mst_268_A_foil.png,501,1_back,29
1,repeat,j,1,0.541886232890325,NA,A,j,0.767423083001631,mst_268_A_foil.png,501,1_back,30
1,repeat,none,1,0.528960140761861,NA,A,none,NaN,mst_276_A_foil.png,501,1_back,31
1,repeat,j,1,0.655701885096033,NA,A,j,0.917295792009099,mst_276_A_foil.png,501,1_back,32
1,isolated,none,1,0.975188914932424,NA,A,none,NaN,mst_088_A_l1.png,501,1_back,33
1,isolated,none,1,0.866042857756346,NA,A,none,NaN,mst_026_A_l1.png,501,1_back,34
1,isolated,none,1,0.710593603214314,NA,A,none,NaN,mst_279_A_l2.png,501,1_back,35
1,compared,none,1,0.822175839144254,NA,A,none,NaN,mst_046_A_l1.png,501,1_back,36
1,compared,k,1,0.833899665506984,NA,B,k,1.12359387500328,mst_046_B_l1.png,501,1_back,37
1,isolated,none,1,0.990024371105528,NA,A,none,NaN,mst_196_A_l2.png,501,1_back,38
1,isolated,none,1,0.927536068087607,NA,A,none,NaN,mst_200_A_l2.png,501,1_back,39
1,isolated,none,1,0.503887456624035,NA,A,none,NaN,mst_217_A_l2.png,501,1_back,40
1,isolated,none,1,0.560039481573515,NA,A,none,NaN,mst_029_A_l1.png,501,1_back,41
1,repeat,none,1,0.693436859494637,NA,A,none,NaN,mst_294_A_foil.png,501,1_back,42
1,repeat,j,1,0.713616705938389,NA,A,j,0.821330792008666,mst_294_A_foil.png,501,1_back,43
1,repeat,none,1,0.91669942305696,NA,A,none,NaN,mst_457_A_foil.png,501,1_back,44
1,repeat,j,1,0.847221948498918,NA,A,j,0.771724207996158,mst_457_A_foil.png,501,1_back,45
1,isolated,none,1,0.747925220358995,NA,A,none,NaN,mst_266_A_l2.png,501,1_back,46
1,compared,none,1,0.779053967592566,NA,A,none,NaN,mst_071_A_l1.png,501,1_back,47
1,compared,k,0,0.938192196014838,NA,B,none,NaN,mst_071_B_l1.png,501,1_back,48
1,isolated,none,1,0.93994756561455,NA,A,none,NaN,mst_259_A_l2.png,501,1_back,49
1,repeat,none,1,0.788719561758896,NA,A,none,NaN,mst_429_A_foil.png,501,1_back,50
1,repeat,j,1,0.666115010846873,NA,A,j,0.79103683300491,mst_429_A_foil.png,501,1_back,51
1,isolated,none,1,0.609553714203458,NA,A,none,NaN,mst_169_A_l1.png,501,1_back,52
1,compared,none,1,0.850631293951313,NA,A,none,NaN,mst_154_A_l1.png,501,1_back,53
1,compared,k,0,0.716421078112262,NA,B,j,0.880839667006512,mst_154_B_l1.png,501,1_back,54
1,compared,none,1,0.915077864063326,NA,A,none,NaN,mst_188_A_l2.png,501,1_back,55
1,compared,k,1,0.911016746765842,NA,B,k,0.833769208999001,mst_188_B_l2.png,501,1_back,56
1,repeat,none,1,0.646832500433499,NA,A,none,NaN,mst_067_A_foil.png,501,1_back,57
1,repeat,j,1,0.720996767490055,NA,A,j,0.868766291998327,mst_067_A_foil.png,501,1_back,58
1,compared,none,1,0.553093890060243,NA,A,none,NaN,mst_289_A_l2.png,501,1_back,59
1,compared,k,1,0.601536274751217,NA,B,k,1.14271124999505,mst_289_B_l2.png,501,1_back,60
1,compared,none,1,0.878689495620095,NA,A,none,NaN,mst_350_A_l2.png,501,1_back,61
1,compared,k,1,0.811541823624151,NA,B,k,0.74989999999525,mst_350_B_l2.png,501,1_back,62
1,repeat,none,1,0.667604996734086,NA,A,none,NaN,mst_243_A_foil.png,501,1_back,63
1,repeat,j,1,0.643244736079562,NA,A,j,0.896516833003261,mst_243_A_foil.png,501,1_back,64
1,compared,none,1,0.632465167074752,NA,A,none,NaN,mst_234_A_l2.png,501,1_back,65
1,compared,k,1,0.950893054103847,NA,B,k,0.755044667006587,mst_234_B_l2.png,501,1_back,66
1,isolated,none,1,0.981004015387644,NA,A,none,NaN,mst_163_A_l1.png,501,1_back,67
1,isolated,none,0,0.577125798684096,NA,B,k,0.670240499995998,mst_217_B_l2.png,501,1_back,68
1,isolated,none,1,0.727097400297565,NA,A,none,NaN,mst_074_A_l1.png,501,1_back,69
1,isolated,none,0,0.777148416739219,NA,A,k,0.683361624993267,mst_219_A_l2.png,501,1_back,70
1,compared,none,1,0.947947603920263,NA,A,none,NaN,mst_127_A_l1.png,501,1_back,71
1,compared,k,1,0.916355031956554,NA,B,k,0.967157333987416,mst_127_B_l1.png,501,1_back,72
1,isolated,none,1,0.995594829650651,NA,B,none,NaN,mst_026_B_l1.png,501,1_back,73
1,compared,none,1,0.550446476566331,NA,A,none,NaN,mst_017_A_l1.png,501,1_back,74
1,compared,k,1,0.667297098413772,NA,B,k,0.863812291005161,mst_017_B_l1.png,501,1_back,75
1,compared,none,1,0.945677108539279,NA,A,none,NaN,mst_313_A_l2.png,501,1_back,76
1,compared,k,1,0.882172846178416,NA,B,k,0.806336375011597,mst_313_B_l2.png,501,1_back,77
1,compared,none,1,0.801278427053919,NA,A,none,NaN,mst_040_A_l1.png,501,1_back,78
1,compared,k,1,0.798983193728747,NA,B,k,0.895106166004553,mst_040_B_l1.png,501,1_back,79
1,isolated,none,1,0.992718473969191,NA,B,none,NaN,mst_169_B_l1.png,501,1_back,80
1,isolated,none,1,0.53505414262846,NA,B,none,NaN,mst_200_B_l2.png,501,1_back,81
1,repeat,none,1,0.879702337840708,NA,A,none,NaN,mst_163_A_foil.png,501,1_back,82
1,repeat,j,0,0.769674259330907,NA,A,k,0.928291415999411,mst_163_A_foil.png,501,1_back,83
1,isolated,none,1,0.601787015124851,NA,B,none,NaN,mst_029_B_l1.png,501,1_back,84
1,isolated,none,1,0.761533081422588,NA,A,none,NaN,mst_360_A_l2.png,501,1_back,85
1,isolated,none,1,0.906248385888889,NA,A,none,NaN,mst_160_A_l1.png,501,1_back,86
1,compared,none,1,0.656728092990233,NA,A,none,NaN,mst_092_A_l1.png,501,1_back,87
1,compared,k,1,0.564908258842077,NA,B,k,1.16241512499982,mst_092_B_l1.png,501,1_back,88
1,isolated,none,1,0.809161550344984,NA,A,none,NaN,mst_119_A_l1.png,501,1_back,89
1,repeat,none,1,0.603619533462438,NA,A,none,NaN,mst_050_A_foil.png,501,1_back,90
1,repeat,j,1,0.631613430717882,NA,A,j,0.956792750002933,mst_050_A_foil.png,501,1_back,91
1,isolated,none,1,0.887253723722362,NA,B,none,NaN,mst_259_B_l2.png,501,1_back,92
1,isolated,none,1,0.583086849283377,NA,B,none,NaN,mst_230_B_l2.png,501,1_back,93
1,isolated,none,1,0.973072493534965,NA,A,none,NaN,mst_146_A_l1.png,501,1_back,94
1,isolated,none,1,0.710749173184178,NA,A,none,NaN,mst_260_A_l2.png,501,1_back,95
1,isolated,none,0,0.682023691701381,NA,B,k,0.920678708993364,mst_260_B_l2.png,501,1_back,96
1,isolated,none,1,0.541353438786468,NA,A,none,NaN,mst_055_A_l1.png,501,1_back,97
1,isolated,none,1,0.749256468165186,NA,A,none,NaN,mst_059_A_l1.png,501,1_back,98
1,isolated,none,1,0.717739905358212,NA,B,none,NaN,mst_309_B_l2.png,501,1_back,99
1,isolated,none,1,0.956773281293297,NA,B,none,NaN,mst_329_B_l2.png,501,1_back,100
1,repeat,none,1,0.512570148733442,NA,A,none,NaN,mst_646_A_foil.png,501,1_back,101
1,repeat,j,1,0.831109760912963,NA,A,j,1.18719308399886,mst_646_A_foil.png,501,1_back,102
1,repeat,none,1,0.593972240849105,NA,A,none,NaN,mst_115_A_foil.png,501,1_back,103
1,repeat,j,1,0.968969187807787,NA,A,j,1.16708749999816,mst_115_A_foil.png,501,1_back,104
1,repeat,none,1,0.676481226193437,NA,A,none,NaN,mst_549_A_foil.png,501,1_back,105
1,repeat,j,1,0.776003147148893,NA,A,j,0.810202334003407,mst_549_A_foil.png,501,1_back,106
1,repeat,none,1,0.515940146775826,NA,A,none,NaN,mst_586_A_foil.png,501,1_back,107
1,repeat,j,1,0.978564247587656,NA,A,j,0.625643291001325,mst_586_A_foil.png,501,1_back,108
1,isolated,none,1,0.823656434511425,NA,B,none,NaN,mst_266_B_l2.png,501,1_back,109
1,compared,none,1,0.897004565708819,NA,A,none,NaN,mst_276_A_l2.png,501,1_back,110
1,compared,k,0,0.625370939517107,NA,B,none,NaN,mst_276_B_l2.png,501,1_back,111
1,isolated,none,1,0.629178918359117,NA,B,none,NaN,mst_087_B_l1.png,501,1_back,112
1,isolated,none,1,0.511902289598197,NA,B,none,NaN,mst_196_B_l2.png,501,1_back,113
1,isolated,none,1,0.978653987935258,NA,B,none,NaN,mst_160_B_l1.png,501,1_back,114
1,compared,none,1,0.905855818248362,NA,A,none,NaN,mst_190_A_l2.png,501,1_back,115
1,compared,k,1,0.985148094029023,NA,B,k,1.0039917499962,mst_190_B_l2.png,501,1_back,116
1,isolated,none,1,0.943737657009768,NA,B,none,NaN,mst_056_B_l1.png,501,1_back,117
1,isolated,none,1,0.536269575818875,NA,B,none,NaN,mst_360_B_l2.png,501,1_back,118
1,repeat,none,1,0.705342656070125,NA,A,none,NaN,mst_358_A_foil.png,501,1_back,119
1,repeat,j,0,0.953009597704167,NA,A,k,0.94807995800511,mst_358_A_foil.png,501,1_back,120
1,isolated,none,1,0.80527809386124,NA,B,none,NaN,mst_205_B_l2.png,501,1_back,121
1,compared,none,1,0.75338050209902,NA,A,none,NaN,mst_307_A_l2.png,501,1_back,122
1,compared,k,1,0.523716768149574,NA,B,k,0.936224707998917,mst_307_B_l2.png,501,1_back,123
1,repeat,none,1,0.768184852543509,NA,A,none,NaN,mst_177_A_foil.png,501,1_back,124
1,repeat,j,1,0.78976905840927,NA,A,j,0.921211707987823,mst_177_A_foil.png,501,1_back,125
1,isolated,none,1,0.71478442452029,NA,B,none,NaN,mst_146_B_l1.png,501,1_back,126
1,repeat,none,1,0.534530527408095,NA,A,none,NaN,mst_198_A_foil.png,501,1_back,127
1,repeat,j,1,0.834047435999241,NA,A,j,0.86450033300207,mst_198_A_foil.png,501,1_back,128
1,repeat,none,1,0.813621537505917,NA,A,none,NaN,mst_427_A_foil.png,501,1_back,129
1,repeat,j,1,0.678473730470792,NA,A,j,1.38983600000211,mst_427_A_foil.png,501,1_back,130
1,compared,none,1,0.952785254314846,NA,A,none,NaN,mst_271_A_l2.png,501,1_back,131
1,compared,k,1,0.767928784095564,NA,B,k,0.888698709008167,mst_271_B_l2.png,501,1_back,132
1,isolated,none,1,0.744680563126942,NA,B,none,NaN,mst_088_B_l1.png,501,1_back,133
1,isolated,none,1,0.840137594896244,NA,A,none,NaN,mst_339_A_l2.png,501,1_back,134
1,compared,none,1,0.829904510469461,NA,A,none,NaN,mst_170_A_l1.png,501,1_back,135
1,compared,k,1,0.842525899271447,NA,B,k,0.795894417009549,mst_170_B_l1.png,501,1_back,136
1,compared,none,1,0.507485530294998,NA,A,none,NaN,mst_171_A_l1.png,501,1_back,137
1,compared,k,1,0.851896665684538,NA,B,k,0.728253291003057,mst_171_B_l1.png,501,1_back,138
1,compared,none,1,0.601922904198703,NA,A,none,NaN,mst_191_A_l2.png,501,1_back,139
1,compared,k,1,0.570729754817361,NA,B,k,0.604114417001256,mst_191_B_l2.png,501,1_back,140
1,compared,none,1,0.672920507248519,NA,A,none,NaN,mst_232_A_l2.png,501,1_back,141
1,compared,k,1,0.683096432609268,NA,B,k,0.918991541999276,mst_232_B_l2.png,501,1_back,142
1,isolated,none,1,0.738501711215836,NA,B,none,NaN,mst_119_B_l1.png,501,1_back,143
1,repeat,none,1,0.73747106691968,NA,A,none,NaN,mst_140_A_foil.png,501,1_back,144
1,repeat,j,1,0.840924256626731,NA,A,j,1.17388425000536,mst_140_A_foil.png,501,1_back,145
1,repeat,none,1,0.814936905370185,NA,A,none,NaN,mst_231_A_foil.png,501,1_back,146
1,repeat,j,1,0.509199991779865,NA,A,j,0.844801957995514,mst_231_A_foil.png,501,1_back,147
1,repeat,none,1,0.976152865237726,NA,A,none,NaN,mst_710_A_foil.png,501,1_back,148
1,repeat,j,1,0.700574005529878,NA,A,j,1.11460979201365,mst_710_A_foil.png,501,1_back,149
1,compared,none,1,0.902107163465594,NA,A,none,NaN,mst_018_A_l1.png,501,1_back,150
1,compared,k,1,0.814582850898505,NA,B,k,1.02946729199903,mst_018_B_l1.png,501,1_back,151
1,compared,none,1,0.734568388703292,NA,A,none,NaN,mst_022_A_l1.png,501,1_back,152
1,compared,k,1,0.948419418716487,NA,B,k,1.45725333299197,mst_022_B_l1.png,501,1_back,153
1,isolated,none,1,0.713503866138945,NA,B,none,NaN,mst_258_B_l2.png,501,1_back,154
1,isolated,none,1,0.537635509487248,NA,B,none,NaN,mst_059_B_l1.png,501,1_back,155
1,repeat,none,1,0.597551686408005,NA,A,none,NaN,mst_528_A_foil.png,501,1_back,156
1,repeat,j,1,0.947351908636737,NA,A,j,0.822160875002737,mst_528_A_foil.png,501,1_back,157
1,isolated,none,1,0.743297595797923,NA,B,none,NaN,mst_279_B_l2.png,501,1_back,158
1,compared,none,1,0.771526925380395,NA,A,none,NaN,mst_318_A_l2.png,501,1_back,159
1,compared,k,0,0.922697187605099,NA,B,none,NaN,mst_318_B_l2.png,501,1_back,160
1,repeat,none,1,0.907627343648502,NA,A,none,NaN,mst_401_A_foil.png,501,1_back,161
1,repeat,j,0,0.588203077690598,NA,A,none,NaN,mst_401_A_foil.png,501,1_back,162
1,isolated,none,1,0.540366409715966,NA,B,none,NaN,mst_163_B_l1.png,501,1_back,163
1,isolated,none,1,0.835093664604089,NA,A,none,NaN,mst_140_A_l1.png,501,1_back,164
1,isolated,none,1,0.823787923399058,NA,B,none,NaN,mst_219_B_l2.png,501,1_back,165
1,isolated,none,1,0.940425754679121,NA,B,none,NaN,mst_074_B_l1.png,501,1_back,166
1,compared,none,1,0.547534307166845,NA,A,none,NaN,mst_235_A_l2.png,501,1_back,167
1,compared,k,1,0.558383953197963,NA,B,k,0.91203012499318,mst_235_B_l2.png,501,1_back,168
1,isolated,none,1,0.893065105203855,NA,B,none,NaN,mst_113_B_l1.png,501,1_back,169
1,compared,none,1,0.883223998118722,NA,A,none,NaN,mst_143_A_l1.png,501,1_back,170
1,compared,k,1,0.737132813653858,NA,B,k,0.92136200000823,mst_143_B_l1.png,501,1_back,171
1,isolated,none,1,0.512109228294372,NA,B,none,NaN,mst_055_B_l1.png,501,1_back,172
1,compared,none,1,0.914520785543695,NA,A,none,NaN,mst_032_A_l1.png,501,1_back,173
1,compared,k,1,0.645747383640574,NA,B,k,0.865592624992132,mst_032_B_l1.png,501,1_back,174
1,isolated,none,1,0.857256803301027,NA,B,none,NaN,mst_339_B_l2.png,501,1_back,175
1,isolated,none,1,0.694536509168582,NA,B,none,NaN,mst_140_B_l1.png,501,1_back,176
1,repeat,none,1,0.696385612271532,NA,A,none,NaN,mst_584_A_foil.png,501,1_back,177
1,repeat,j,0,0.733399934043714,NA,A,none,NaN,mst_584_A_foil.png,501,1_back,178
1,repeat,none,0,0.834219650230921,NA,A,j,-0.725078791001579,mst_046_A_foil.png,501,1_back,179
1,repeat,j,1,0.721583421968895,NA,A,j,1.33423000000766,mst_046_A_foil.png,501,1_back,180
2,isolated,none,1,0.578294138087662,NA,A,none,NaN,mst_120_A_l1.png,501,1_back,181
2,isolated,none,1,0.827797990260758,NA,A,none,NaN,mst_063_A_l1.png,501,1_back,182
2,isolated,none,1,0.829613368291084,NA,A,none,NaN,mst_075_A_l1.png,501,1_back,183
2,compared,none,1,0.736434123024211,NA,A,none,NaN,mst_021_A_l1.png,501,1_back,184
2,compared,k,1,0.866382386759254,NA,B,k,0.889844999997877,mst_021_B_l1.png,501,1_back,185
2,isolated,none,1,0.802891179593171,NA,A,none,NaN,mst_275_A_l2.png,501,1_back,186
2,isolated,none,1,0.740908126985528,NA,A,none,NaN,mst_003_A_l1.png,501,1_back,187
2,isolated,none,1,0.699604068570607,NA,A,none,NaN,mst_238_A_l2.png,501,1_back,188
2,isolated,none,1,0.808460608832656,NA,A,none,NaN,mst_023_A_l1.png,501,1_back,189
2,repeat,none,1,0.829716601566041,NA,A,none,NaN,mst_223_A_foil.png,501,1_back,190
2,repeat,j,1,0.568416669420587,NA,A,j,1.49504275000072,mst_223_A_foil.png,501,1_back,191
2,compared,none,1,0.745680246260405,NA,A,none,NaN,mst_305_A_l2.png,501,1_back,192
2,compared,k,0,0.631958255250008,NA,B,j,0.842315292000421,mst_305_B_l2.png,501,1_back,193
2,compared,none,1,0.742545569577763,NA,A,none,NaN,mst_280_A_l2.png,501,1_back,194
2,compared,k,1,0.701270496468094,NA,B,k,0.85505679200287,mst_280_B_l2.png,501,1_back,195
2,repeat,none,1,0.859897467983631,NA,A,none,NaN,mst_400_A_foil.png,501,1_back,196
2,repeat,j,1,0.707590454440945,NA,A,j,0.833734375002678,mst_400_A_foil.png,501,1_back,197
2,isolated,none,1,0.997391557314076,NA,A,none,NaN,mst_338_A_l2.png,501,1_back,198
2,isolated,none,1,0.83303103431445,NA,A,none,NaN,mst_332_A_l2.png,501,1_back,199
2,compared,none,1,0.58943739143702,NA,A,none,NaN,mst_306_A_l2.png,501,1_back,200
2,compared,k,1,0.737318954268663,NA,B,k,0.653141167000285,mst_306_B_l2.png,501,1_back,201
2,compared,none,1,0.531262181734952,NA,A,none,NaN,mst_237_A_l2.png,501,1_back,202
2,compared,k,1,0.981663738851724,NA,B,k,0.860225500000524,mst_237_B_l2.png,501,1_back,203
2,isolated,none,1,0.556100846116606,NA,A,none,NaN,mst_317_A_l2.png,501,1_back,204
2,isolated,none,1,0.986960808208058,NA,B,none,NaN,mst_332_B_l2.png,501,1_back,205
2,compared,none,1,0.835333345350715,NA,A,none,NaN,mst_201_A_l2.png,501,1_back,206
2,compared,k,1,0.69626524473717,NA,B,k,0.884056000009878,mst_201_B_l2.png,501,1_back,207
2,isolated,none,1,0.55294737010002,NA,B,none,NaN,mst_275_B_l2.png,501,1_back,208
2,repeat,none,1,0.972960244391926,NA,A,none,NaN,mst_194_A_foil.png,501,1_back,209
2,repeat,j,1,0.800636710702873,NA,A,j,1.09150662500178,mst_194_A_foil.png,501,1_back,210
2,compared,none,1,0.750393514415424,NA,A,none,NaN,mst_148_A_l1.png,501,1_back,211
2,compared,k,1,0.948045218896588,NA,B,k,0.80244404199766,mst_148_B_l1.png,501,1_back,212
2,repeat,none,1,0.77330223164644,NA,A,none,NaN,mst_653_A_foil.png,501,1_back,213
2,repeat,j,1,0.551823365255969,NA,A,j,0.972394790995168,mst_653_A_foil.png,501,1_back,214
2,compared,none,1,0.807224273682169,NA,A,none,NaN,mst_304_A_l2.png,501,1_back,215
2,compared,k,1,0.886270127102142,NA,B,k,1.12105179201171,mst_304_B_l2.png,501,1_back,216
2,repeat,none,1,0.917108004750018,NA,A,none,NaN,mst_052_A_foil.png,501,1_back,217
2,repeat,j,1,0.903023814896542,NA,A,j,0.846860167002887,mst_052_A_foil.png,501,1_back,218
2,isolated,none,1,0.778245119978261,NA,A,none,NaN,mst_069_A_l1.png,501,1_back,219
2,isolated,none,1,0.592288690806266,NA,A,none,NaN,mst_294_A_l2.png,501,1_back,220
2,compared,none,1,0.525007361552352,NA,A,none,NaN,mst_215_A_l2.png,501,1_back,221
2,compared,k,0,0.954271516530101,NA,B,none,NaN,mst_215_B_l2.png,501,1_back,222
2,isolated,none,0,0.825576008965671,NA,A,k,-0.651535249999142,mst_331_A_l2.png,501,1_back,223
2,compared,none,1,0.798076054321034,NA,A,none,NaN,mst_180_A_l1.png,501,1_back,224
2,compared,k,0,0.742532886695265,NA,B,j,1.05711112500285,mst_180_B_l1.png,501,1_back,225
2,compared,none,1,0.685095658073796,NA,A,none,NaN,mst_314_A_l2.png,501,1_back,226
2,compared,k,1,0.865201783450797,NA,B,k,0.78835825000715,mst_314_B_l2.png,501,1_back,227
2,compared,none,1,0.917624318101767,NA,A,none,NaN,mst_084_A_l1.png,501,1_back,228
2,compared,k,0,0.593034728588226,NA,B,j,0.947746375008137,mst_084_B_l1.png,501,1_back,229
2,isolated,none,1,0.530684008551242,NA,A,none,NaN,mst_249_A_l2.png,501,1_back,230
2,isolated,none,1,0.64536642287591,NA,B,none,NaN,mst_317_B_l2.png,501,1_back,231
2,repeat,none,1,0.518553493920593,NA,A,none,NaN,mst_748_A_foil.png,501,1_back,232
2,repeat,j,1,0.846833545035008,NA,A,j,0.992841500003124,mst_748_A_foil.png,501,1_back,233
2,compared,none,1,0.671306456987748,NA,A,none,NaN,mst_009_A_l1.png,501,1_back,234
2,compared,k,1,0.876436058386135,NA,B,k,0.796917542000301,mst_009_B_l1.png,501,1_back,235
2,compared,none,1,0.610143662039702,NA,A,none,NaN,mst_168_A_l1.png,501,1_back,236
2,compared,k,1,0.867944616868754,NA,B,k,1.08835404099955,mst_168_B_l1.png,501,1_back,237
2,compared,none,1,0.734424969560867,NA,A,none,NaN,mst_014_A_l1.png,501,1_back,238
2,compared,k,1,0.614858996322984,NA,B,k,0.875773708001361,mst_014_B_l1.png,501,1_back,239
2,compared,none,1,0.55932002334021,NA,A,none,NaN,mst_248_A_l2.png,501,1_back,240
2,compared,k,1,0.522266455624892,NA,B,k,0.931033666987787,mst_248_B_l2.png,501,1_back,241
2,repeat,none,1,0.983131141449658,NA,A,none,NaN,mst_579_A_foil.png,501,1_back,242
2,repeat,j,0,0.834128826929604,NA,A,none,NaN,mst_579_A_foil.png,501,1_back,243
2,isolated,none,0,0.899685973128608,NA,A,j,-0.691371999986586,mst_077_A_l1.png,501,1_back,244
2,repeat,none,1,0.981695098279121,NA,A,none,NaN,mst_687_A_foil.png,501,1_back,245
2,repeat,j,1,0.507536191727638,NA,A,j,0.766025791992433,mst_687_A_foil.png,501,1_back,246
2,compared,none,1,0.838567813003166,NA,A,none,NaN,mst_114_A_l1.png,501,1_back,247
2,compared,k,1,0.605753031126228,NA,B,k,0.722195790993283,mst_114_B_l1.png,501,1_back,248
2,isolated,none,1,0.615909456823443,NA,A,none,NaN,mst_359_A_l2.png,501,1_back,249
2,compared,none,1,0.893147291428778,NA,A,none,NaN,mst_106_A_l1.png,501,1_back,250
2,compared,k,1,0.740498502965139,NA,B,k,1.24229491599544,mst_106_B_l1.png,501,1_back,251
2,repeat,none,1,0.61264790036582,NA,A,none,NaN,mst_238_A_foil.png,501,1_back,252
2,repeat,j,1,0.754332220678072,NA,A,j,1.01965191699855,mst_238_A_foil.png,501,1_back,253
2,isolated,none,1,0.673046671601287,NA,A,none,NaN,mst_002_A_l1.png,501,1_back,254
2,compared,none,1,0.547454574249922,NA,A,none,NaN,mst_223_A_l2.png,501,1_back,255
2,compared,k,0,0.782486997407027,NA,B,none,NaN,mst_223_B_l2.png,501,1_back,256
2,isolated,none,0,0.748950097600677,NA,B,k,-0.28481779199501,mst_249_B_l2.png,501,1_back,257
2,repeat,none,1,0.527705663825307,NA,A,none,NaN,mst_726_A_foil.png,501,1_back,258
2,repeat,j,1,0.759328507201133,NA,A,j,0.92364829199505,mst_726_A_foil.png,501,1_back,259
2,isolated,none,1,0.515087777151558,NA,A,none,NaN,mst_024_A_l1.png,501,1_back,260
2,repeat,none,1,0.940844031869712,NA,A,none,NaN,mst_426_A_foil.png,501,1_back,261
2,repeat,j,1,0.990731349283652,NA,A,j,1.46321191699826,mst_426_A_foil.png,501,1_back,262
2,isolated,none,1,0.739168544005513,NA,A,none,NaN,mst_020_A_l1.png,501,1_back,263
2,repeat,none,1,0.984730221678418,NA,A,none,NaN,mst_300_A_foil.png,501,1_back,264
2,repeat,j,1,0.934281150181034,NA,A,j,1.00850770800025,mst_300_A_foil.png,501,1_back,265
2,isolated,none,1,0.602412019678252,NA,B,none,NaN,mst_023_B_l1.png,501,1_back,266
2,compared,none,1,0.516533789197972,NA,A,none,NaN,mst_153_A_l1.png,501,1_back,267
2,compared,k,0,0.916924792639259,NA,B,j,0.978135042008944,mst_153_B_l1.png,501,1_back,268
2,compared,none,1,0.787323431715002,NA,A,none,NaN,mst_167_A_l1.png,501,1_back,269
2,compared,k,1,0.91542830047531,NA,B,k,0.649602707999293,mst_167_B_l1.png,501,1_back,270
2,repeat,none,1,0.626145746872493,NA,A,none,NaN,mst_051_A_foil.png,501,1_back,271
2,repeat,j,1,0.795898454517847,NA,A,j,0.926459166992572,mst_051_A_foil.png,501,1_back,272
2,isolated,none,1,0.745175316193934,NA,B,none,NaN,mst_024_B_l1.png,501,1_back,273
2,repeat,none,1,0.688465577581442,NA,A,none,NaN,mst_570_A_foil.png,501,1_back,274
2,repeat,j,0,0.799365131282197,NA,A,none,NaN,mst_570_A_foil.png,501,1_back,275
2,isolated,none,1,0.634669395194526,NA,A,none,NaN,mst_286_A_l2.png,501,1_back,276
2,isolated,none,1,0.765553958879975,NA,A,none,NaN,mst_042_A_l1.png,501,1_back,277
2,isolated,none,1,0.747331911715481,NA,A,none,NaN,mst_316_A_l2.png,501,1_back,278
2,isolated,none,1,0.864293699422683,NA,B,none,NaN,mst_042_B_l1.png,501,1_back,279
2,isolated,none,1,0.939158185998233,NA,B,none,NaN,mst_003_B_l1.png,501,1_back,280
2,repeat,none,1,0.53631205194258,NA,A,none,NaN,mst_701_A_foil.png,501,1_back,281
2,repeat,j,1,0.628012131153096,NA,A,j,1.05850687500788,mst_701_A_foil.png,501,1_back,282
2,isolated,none,1,0.539000174155133,NA,A,none,NaN,mst_068_A_l1.png,501,1_back,283
2,repeat,none,1,0.620307753927582,NA,A,none,NaN,mst_532_A_foil.png,501,1_back,284
2,repeat,j,0,0.743977506996852,NA,A,none,NaN,mst_532_A_foil.png,501,1_back,285
2,repeat,none,0,0.80320416634057,NA,A,j,-0.763637083000503,mst_446_A_foil.png,501,1_back,286
2,repeat,j,1,0.581494074849645,NA,A,j,0.515466958997422,mst_446_A_foil.png,501,1_back,287
2,compared,none,1,0.907152392552548,NA,A,none,NaN,mst_034_A_l1.png,501,1_back,288
2,compared,k,1,0.550570253898754,NA,B,k,0.793930457992246,mst_034_B_l1.png,501,1_back,289
2,isolated,none,1,0.505519605468818,NA,B,none,NaN,mst_316_B_l2.png,501,1_back,290
2,isolated,none,1,0.784332505815161,NA,A,none,NaN,mst_165_A_l1.png,501,1_back,291
2,isolated,none,1,0.60065538528472,NA,A,none,NaN,mst_311_A_l2.png,501,1_back,292
2,repeat,none,1,0.554349739221851,NA,A,none,NaN,mst_151_A_foil.png,501,1_back,293
2,repeat,j,1,0.765467486527154,NA,A,j,0.762491500005126,mst_151_A_foil.png,501,1_back,294
2,repeat,none,1,0.780336674057329,NA,A,none,NaN,mst_064_A_foil.png,501,1_back,295
2,repeat,j,1,0.922771874142211,NA,A,j,0.796865750002326,mst_064_A_foil.png,501,1_back,296
2,isolated,none,1,0.940384723513585,NA,A,none,NaN,mst_151_A_l1.png,501,1_back,297
2,repeat,none,1,0.936615460661229,NA,A,none,NaN,mst_711_A_foil.png,501,1_back,298
2,repeat,j,0,0.648720346176043,NA,A,none,NaN,mst_711_A_foil.png,501,1_back,299
2,isolated,none,1,0.501829853037873,NA,B,none,NaN,mst_020_B_l1.png,501,1_back,300
2,isolated,none,1,0.743857424513984,NA,A,none,NaN,mst_221_A_l2.png,501,1_back,301
2,compared,none,1,0.599552688066119,NA,A,none,NaN,mst_004_A_l1.png,501,1_back,302
2,compared,k,1,0.917376556951748,NA,B,k,0.803041833991301,mst_004_B_l1.png,501,1_back,303
2,isolated,none,1,0.804775492148318,NA,B,none,NaN,mst_069_B_l1.png,501,1_back,304
2,isolated,none,1,0.926628880107188,NA,A,none,NaN,mst_351_A_l2.png,501,1_back,305
2,compared,none,1,0.622155874092338,NA,A,none,NaN,mst_184_A_l2.png,501,1_back,306
2,compared,k,0,0.516875933137565,NA,B,none,NaN,mst_184_B_l2.png,501,1_back,307
2,repeat,none,1,0.777549615347635,NA,A,none,NaN,mst_330_A_foil.png,501,1_back,308
2,repeat,j,1,0.812872730127189,NA,A,j,0.769923582993215,mst_330_A_foil.png,501,1_back,309
2,repeat,none,1,0.93339400000154,NA,A,none,NaN,mst_154_A_foil.png,501,1_back,310
2,repeat,j,1,0.674831205456342,NA,A,j,0.875205207994441,mst_154_A_foil.png,501,1_back,311
2,repeat,none,1,0.856766319235111,NA,A,none,NaN,mst_103_A_foil.png,501,1_back,312
2,repeat,j,1,0.629324067024668,NA,A,j,0.750282541994238,mst_103_A_foil.png,501,1_back,313
2,isolated,none,1,0.895293397096776,NA,B,none,NaN,mst_151_B_l1.png,501,1_back,314
2,isolated,none,1,0.613849211974866,NA,A,none,NaN,mst_100_A_l1.png,501,1_back,315
2,isolated,none,1,0.892629952318318,NA,B,none,NaN,mst_063_B_l1.png,501,1_back,316
2,compared,none,1,0.544357891319979,NA,A,none,NaN,mst_278_A_l2.png,501,1_back,317
2,compared,k,1,0.88435474927716,NA,B,k,0.834528624996892,mst_278_B_l2.png,501,1_back,318
2,isolated,none,1,0.656588719977196,NA,A,none,NaN,mst_247_A_l2.png,501,1_back,319
2,isolated,none,1,0.563277770493944,NA,B,none,NaN,mst_359_B_l2.png,501,1_back,320
2,isolated,none,1,0.936845589035276,NA,B,none,NaN,mst_165_B_l1.png,501,1_back,321
2,isolated,none,1,0.74874055751855,NA,B,none,NaN,mst_311_B_l2.png,501,1_back,322
2,repeat,none,1,0.508653685593281,NA,A,none,NaN,mst_666_A_foil.png,501,1_back,323
2,repeat,j,0,0.842947665453593,NA,A,none,NaN,mst_666_A_foil.png,501,1_back,324
2,compared,none,0,0.999041203062515,NA,A,k,-0.0568452919978881,mst_094_A_l1.png,501,1_back,325
2,compared,k,1,0.839918790584083,NA,B,k,0.956305582993082,mst_094_B_l1.png,501,1_back,326
2,isolated,none,1,0.965552870295835,NA,B,none,NaN,mst_100_B_l1.png,501,1_back,327
2,repeat,none,1,0.536043070143357,NA,A,none,NaN,mst_633_A_foil.png,501,1_back,328
2,repeat,j,1,0.616597870445726,NA,A,j,0.77500645800319,mst_633_A_foil.png,501,1_back,329
2,repeat,none,1,0.676284465658146,NA,A,none,NaN,mst_132_A_foil.png,501,1_back,330
2,repeat,j,1,0.682214076827442,NA,A,j,0.626068833007594,mst_132_A_foil.png,501,1_back,331
2,isolated,none,1,0.785476096244461,NA,B,none,NaN,mst_068_B_l1.png,501,1_back,332
2,repeat,none,1,0.904509452455181,NA,A,none,NaN,mst_327_A_foil.png,501,1_back,333
2,repeat,j,1,0.922262422925759,NA,A,j,0.80995041699498,mst_327_A_foil.png,501,1_back,334
2,isolated,none,1,0.50142786056827,NA,B,none,NaN,mst_075_B_l1.png,501,1_back,335
2,repeat,none,1,0.846453623739791,NA,A,none,NaN,mst_259_A_foil.png,501,1_back,336
2,repeat,j,1,0.83385059051078,NA,A,j,0.820611499992083,mst_259_A_foil.png,501,1_back,337
2,isolated,none,1,0.746276819339847,NA,B,none,NaN,mst_238_B_l2.png,501,1_back,338
2,repeat,none,1,0.513132542354867,NA,A,none,NaN,mst_486_A_foil.png,501,1_back,339
2,repeat,j,1,0.723876429820259,NA,A,j,0.897296499999356,mst_486_A_foil.png,501,1_back,340
2,repeat,none,1,0.795065015642157,NA,A,none,NaN,mst_452_A_foil.png,501,1_back,341
2,repeat,j,1,0.874327700699163,NA,A,j,0.772573916998226,mst_452_A_foil.png,501,1_back,342
2,isolated,none,1,0.541602579568479,NA,B,none,NaN,mst_247_B_l2.png,501,1_back,343
2,isolated,none,1,0.586488763112202,NA,B,none,NaN,mst_351_B_l2.png,501,1_back,344
2,isolated,none,1,0.745065521248807,NA,B,none,NaN,mst_338_B_l2.png,501,1_back,345
2,isolated,none,1,0.853997054547818,NA,B,none,NaN,mst_077_B_l1.png,501,1_back,346
2,isolated,none,1,0.861439590896776,NA,B,none,NaN,mst_286_B_l2.png,501,1_back,347
2,isolated,none,1,0.626479122968921,NA,B,none,NaN,mst_294_B_l2.png,501,1_back,348
2,isolated,none,1,0.857264455436304,NA,B,none,NaN,mst_331_B_l2.png,501,1_back,349
2,compared,none,1,0.806643690532227,NA,A,none,NaN,mst_287_A_l2.png,501,1_back,350
2,compared,k,1,0.986212629997344,NA,B,k,1.0340703749971,mst_287_B_l2.png,501,1_back,351
2,compared,none,1,0.993376275337026,NA,A,none,NaN,mst_085_A_l1.png,501,1_back,352
2,compared,k,1,0.76531271816655,NA,B,k,1.25568454099994,mst_085_B_l1.png,501,1_back,353
2,isolated,none,1,0.537685674325768,NA,B,none,NaN,mst_120_B_l1.png,501,1_back,354
2,compared,none,1,0.835995793576251,NA,A,none,NaN,mst_299_A_l2.png,501,1_back,355
2,compared,k,1,0.92920041198488,NA,B,k,0.839607957997941,mst_299_B_l2.png,501,1_back,356
2,isolated,none,1,0.875906776000672,NA,B,none,NaN,mst_221_B_l2.png,501,1_back,357
2,compared,none,1,0.740382397444736,NA,A,none,NaN,mst_295_A_l2.png,501,1_back,358
2,compared,k,1,0.664183282792676,NA,B,k,0.934581624998827,mst_295_B_l2.png,501,1_back,359
2,isolated,none,1,0.937907140931013,NA,B,none,NaN,mst_002_B_l1.png,501,1_back,360
3,isolated,none,1,0.869794392565539,NA,A,none,NaN,mst_193_A_l2.png,501,1_back,361
3,isolated,none,1,0.891304533451688,NA,A,none,NaN,mst_283_A_l2.png,501,1_back,362
3,compared,none,1,0.600296033189578,NA,A,none,NaN,mst_072_A_l1.png,501,1_back,363
3,compared,k,1,0.526547062509691,NA,B,k,0.810198708000826,mst_072_B_l1.png,501,1_back,364
3,compared,none,1,0.78948023051066,NA,A,none,NaN,mst_334_A_l2.png,501,1_back,365
3,compared,k,1,0.638437409021124,NA,B,k,0.727556416997686,mst_334_B_l2.png,501,1_back,366
3,isolated,none,1,0.746847332498402,NA,A,none,NaN,mst_312_A_l2.png,501,1_back,367
3,compared,none,1,0.94870486130233,NA,A,none,NaN,mst_048_A_l1.png,501,1_back,368
3,compared,k,1,0.750418905575168,NA,B,k,1.00567445799243,mst_048_B_l1.png,501,1_back,369
3,isolated,none,1,0.527942208603388,NA,B,none,NaN,mst_193_B_l2.png,501,1_back,370
3,repeat,none,1,0.996031735607049,NA,A,none,NaN,mst_134_A_foil.png,501,1_back,371
3,repeat,j,1,0.868825895976085,NA,A,j,0.773721750010736,mst_134_A_foil.png,501,1_back,372
3,isolated,none,1,0.972296870251681,NA,A,none,NaN,mst_159_A_l1.png,501,1_back,373
3,compared,none,1,0.81345501293031,NA,A,none,NaN,mst_126_A_l1.png,501,1_back,374
3,compared,k,1,0.706398424017552,NA,B,k,0.792568000004394,mst_126_B_l1.png,501,1_back,375
3,compared,none,1,0.941821079296125,NA,A,none,NaN,mst_204_A_l2.png,501,1_back,376
3,compared,k,1,0.579574136197527,NA,B,k,0.792142374994,mst_204_B_l2.png,501,1_back,377
3,compared,none,1,0.595848509698934,NA,A,none,NaN,mst_344_A_l2.png,501,1_back,378
3,compared,k,1,0.655500794842824,NA,B,k,0.917352584001492,mst_344_B_l2.png,501,1_back,379
3,isolated,none,1,0.623422470700666,NA,A,none,NaN,mst_277_A_l2.png,501,1_back,380
3,repeat,none,1,0.667365577885445,NA,A,none,NaN,mst_557_A_foil.png,501,1_back,381
3,repeat,j,0,0.95201344557697,NA,A,k,1.17406879201008,mst_557_A_foil.png,501,1_back,382
3,isolated,none,1,0.84778799740603,NA,A,none,NaN,mst_246_A_l2.png,501,1_back,383
3,isolated,none,1,0.583648945294198,NA,A,none,NaN,mst_049_A_l1.png,501,1_back,384
3,isolated,none,1,0.951138060096976,NA,A,none,NaN,mst_274_A_l2.png,501,1_back,385
3,isolated,none,1,0.962491616706838,NA,B,none,NaN,mst_159_B_l1.png,501,1_back,386
3,isolated,none,1,0.596978769919063,NA,B,none,NaN,mst_274_B_l2.png,501,1_back,387
3,repeat,none,1,0.926157263085908,NA,A,none,NaN,mst_039_A_foil.png,501,1_back,388
3,repeat,j,1,0.976003952440006,NA,A,j,0.886682958996971,mst_039_A_foil.png,501,1_back,389
3,isolated,none,1,0.507141436350699,NA,B,none,NaN,mst_283_B_l2.png,501,1_back,390
3,isolated,none,1,0.66087724053898,NA,A,none,NaN,mst_158_A_l1.png,501,1_back,391
3,isolated,none,1,0.694400062140149,NA,B,none,NaN,mst_312_B_l2.png,501,1_back,392
3,isolated,none,1,0.903778574114572,NA,A,none,NaN,mst_093_A_l1.png,501,1_back,393
3,isolated,none,1,0.547724934635438,NA,A,none,NaN,mst_062_A_l1.png,501,1_back,394
3,isolated,none,1,0.675787221764974,NA,A,none,NaN,mst_214_A_l2.png,501,1_back,395
3,isolated,none,1,0.627027196206371,NA,A,none,NaN,mst_233_A_l2.png,501,1_back,396
3,isolated,none,1,0.616175842123993,NA,B,none,NaN,mst_233_B_l2.png,501,1_back,397
3,repeat,none,1,0.753656815308446,NA,A,none,NaN,mst_342_A_foil.png,501,1_back,398
3,repeat,j,1,0.772008271101292,NA,A,j,0.879859084001509,mst_342_A_foil.png,501,1_back,399
3,compared,none,1,0.885176007889349,NA,A,none,NaN,mst_005_A_l1.png,501,1_back,400
3,compared,k,1,0.866799707364224,NA,B,k,0.77642116700008,mst_005_B_l1.png,501,1_back,401
3,isolated,none,1,0.748603137693154,NA,A,none,NaN,mst_030_A_l1.png,501,1_back,402
3,repeat,none,1,0.947434018874951,NA,A,none,NaN,mst_157_A_foil.png,501,1_back,403
3,repeat,j,1,0.787191329464572,NA,A,j,0.899849458000972,mst_157_A_foil.png,501,1_back,404
3,isolated,none,1,0.839928282293653,NA,A,none,NaN,mst_136_A_l1.png,501,1_back,405
3,isolated,none,1,0.665241519297625,NA,A,none,NaN,mst_357_A_l2.png,501,1_back,406
3,compared,none,1,0.933065944458384,NA,A,none,NaN,mst_263_A_l2.png,501,1_back,407
3,compared,k,1,0.958368940628956,NA,B,k,0.946532916990691,mst_263_B_l2.png,501,1_back,408
3,isolated,none,1,0.834974125874562,NA,A,none,NaN,mst_142_A_l1.png,501,1_back,409
3,isolated,none,1,0.973048348368163,NA,A,none,NaN,mst_224_A_l2.png,501,1_back,410
3,isolated,none,1,0.81003146071674,NA,A,none,NaN,mst_109_A_l1.png,501,1_back,411
3,isolated,none,1,0.500999589138959,NA,B,none,NaN,mst_277_B_l2.png,501,1_back,412
3,isolated,none,1,0.986057453309786,NA,B,none,NaN,mst_136_B_l1.png,501,1_back,413
3,isolated,none,1,0.757149386344178,NA,A,none,NaN,mst_340_A_l2.png,501,1_back,414
3,isolated,none,1,0.855097954644477,NA,A,none,NaN,mst_358_A_l2.png,501,1_back,415
3,isolated,none,1,0.931963250519071,NA,B,none,NaN,mst_062_B_l1.png,501,1_back,416
3,isolated,none,1,0.674908472590177,NA,B,none,NaN,mst_049_B_l1.png,501,1_back,417
3,repeat,none,1,0.841200416469022,NA,A,none,NaN,mst_032_A_foil.png,501,1_back,418
3,repeat,j,1,0.715867071331943,NA,A,j,0.856876207995811,mst_032_A_foil.png,501,1_back,419
3,repeat,none,1,0.542836810750316,NA,A,none,NaN,mst_529_A_foil.png,501,1_back,420
3,repeat,j,1,0.971780862880294,NA,A,j,0.879503874995862,mst_529_A_foil.png,501,1_back,421
3,isolated,none,1,0.811017528430433,NA,A,none,NaN,mst_297_A_l2.png,501,1_back,422
3,compared,none,1,0.546545126553741,NA,A,none,NaN,mst_281_A_l2.png,501,1_back,423
3,compared,k,0,0.708039415993942,NA,B,none,NaN,mst_281_B_l2.png,501,1_back,424
3,isolated,none,1,0.766374710166904,NA,A,none,NaN,mst_172_A_l1.png,501,1_back,425
3,repeat,none,1,0.52926076114062,NA,A,none,NaN,mst_357_A_foil.png,501,1_back,426
3,repeat,j,1,0.947538100483633,NA,A,j,1.23820308300492,mst_357_A_foil.png,501,1_back,427
3,isolated,none,1,0.547651955821764,NA,B,none,NaN,mst_158_B_l1.png,501,1_back,428
3,repeat,none,1,0.516390289780779,NA,A,none,NaN,mst_478_A_foil.png,501,1_back,429
3,repeat,j,1,0.526403664211698,NA,A,j,0.796671957999934,mst_478_A_foil.png,501,1_back,430
3,repeat,none,1,0.768490493109449,NA,A,none,NaN,mst_713_A_foil.png,501,1_back,431
3,repeat,j,1,0.587390916983511,NA,A,j,0.649831583999912,mst_713_A_foil.png,501,1_back,432
3,isolated,none,1,0.597155065357502,NA,A,none,NaN,mst_105_A_l1.png,501,1_back,433
3,isolated,none,1,0.590355208753067,NA,B,none,NaN,mst_224_B_l2.png,501,1_back,434
3,isolated,none,1,0.685931963374056,NA,A,none,NaN,mst_173_A_l1.png,501,1_back,435
3,compared,none,1,0.504754796782699,NA,A,none,NaN,mst_043_A_l1.png,501,1_back,436
3,compared,k,0,0.790684966308003,NA,B,none,NaN,mst_043_B_l1.png,501,1_back,437
3,repeat,none,1,0.610122900903054,NA,A,none,NaN,mst_123_A_foil.png,501,1_back,438
3,repeat,j,1,0.957066995965379,NA,A,j,0.846391500002937,mst_123_A_foil.png,501,1_back,439
3,isolated,none,1,0.561948427423748,NA,B,none,NaN,mst_172_B_l1.png,501,1_back,440
3,isolated,none,1,0.936398481945972,NA,A,none,NaN,mst_325_A_l2.png,501,1_back,441
3,compared,none,1,0.535730150338363,NA,A,none,NaN,mst_098_A_l1.png,501,1_back,442
3,compared,k,1,0.512470778021786,NA,B,k,0.885183292004513,mst_098_B_l1.png,501,1_back,443
3,isolated,none,1,0.780794037071206,NA,B,none,NaN,mst_358_B_l2.png,501,1_back,444
3,isolated,none,1,0.824473617496737,NA,B,none,NaN,mst_142_B_l1.png,501,1_back,445
3,compared,none,1,0.624957003597597,NA,A,none,NaN,mst_208_A_l2.png,501,1_back,446
3,compared,k,1,0.544235475669271,NA,B,k,0.906156124998233,mst_208_B_l2.png,501,1_back,447
3,isolated,none,1,0.513169142723239,NA,A,none,NaN,mst_125_A_l1.png,501,1_back,448
3,repeat,none,1,0.588997203757117,NA,A,none,NaN,mst_521_A_foil.png,501,1_back,449
3,repeat,j,1,0.674262564534556,NA,A,j,0.982620583003154,mst_521_A_foil.png,501,1_back,450
3,isolated,none,1,0.982546647335298,NA,A,none,NaN,mst_045_A_l1.png,501,1_back,451
3,repeat,none,1,0.954695945687694,NA,A,none,NaN,mst_341_A_foil.png,501,1_back,452
3,repeat,j,1,0.749172587814702,NA,A,j,1.40614270900551,mst_341_A_foil.png,501,1_back,453
3,repeat,none,1,0.763614131331892,NA,A,none,NaN,mst_582_A_foil.png,501,1_back,454
3,repeat,j,1,0.625088225194822,NA,A,j,0.835758582994458,mst_582_A_foil.png,501,1_back,455
3,repeat,none,1,0.761218423847934,NA,A,none,NaN,mst_146_A_foil.png,501,1_back,456
3,repeat,j,1,0.829414122762274,NA,A,j,0.990875999996206,mst_146_A_foil.png,501,1_back,457
3,repeat,none,1,0.827057932394511,NA,A,none,NaN,mst_706_A_foil.png,501,1_back,458
3,repeat,j,1,0.632541199183482,NA,A,j,0.7567562500044,mst_706_A_foil.png,501,1_back,459
3,repeat,none,1,0.90281045842351,NA,A,none,NaN,mst_489_A_foil.png,501,1_back,460
3,repeat,j,1,0.832371695520323,NA,A,j,1.17496641699108,mst_489_A_foil.png,501,1_back,461
3,repeat,none,1,0.766075785298372,NA,A,none,NaN,mst_656_A_foil.png,501,1_back,462
3,repeat,j,1,0.846810444877941,NA,A,j,0.830314999999246,mst_656_A_foil.png,501,1_back,463
3,isolated,none,1,0.970627811702295,NA,B,none,NaN,mst_045_B_l1.png,501,1_back,464
3,compared,none,1,0.976726134533378,NA,A,none,NaN,mst_135_A_l1.png,501,1_back,465
3,compared,k,0,0.989439980555368,NA,B,none,NaN,mst_135_B_l1.png,501,1_back,466
3,isolated,none,1,0.793154787963134,NA,B,none,NaN,mst_297_B_l2.png,501,1_back,467
3,repeat,none,1,0.823447107189676,NA,A,none,NaN,mst_172_A_foil.png,501,1_back,468
3,repeat,j,1,0.631089082247375,NA,A,j,0.908942916998058,mst_172_A_foil.png,501,1_back,469
3,compared,none,1,0.992102162219145,NA,A,none,NaN,mst_203_A_l2.png,501,1_back,470
3,compared,k,1,0.956536842023509,NA,B,k,1.02548079199914,mst_203_B_l2.png,501,1_back,471
3,isolated,none,1,0.585296603674469,NA,B,none,NaN,mst_105_B_l1.png,501,1_back,472
3,repeat,none,1,0.854996275975373,NA,A,none,NaN,mst_734_A_foil.png,501,1_back,473
3,repeat,j,0,0.611176868705394,NA,A,none,NaN,mst_734_A_foil.png,501,1_back,474
3,repeat,none,1,0.770256805770245,NA,A,none,NaN,mst_349_A_foil.png,501,1_back,475
3,repeat,j,1,0.56277270218123,NA,A,j,0.78218220898998,mst_349_A_foil.png,501,1_back,476
3,compared,none,1,0.586578514636298,NA,A,none,NaN,mst_139_A_l1.png,501,1_back,477
3,compared,k,1,0.571557261135403,NA,B,k,1.08934779099945,mst_139_B_l1.png,501,1_back,478
3,repeat,none,1,0.676651383861423,NA,A,none,NaN,mst_168_A_foil.png,501,1_back,479
3,repeat,j,1,0.526429523743061,NA,A,j,0.784440167000866,mst_168_A_foil.png,501,1_back,480
3,isolated,none,1,0.972642529743757,NA,B,none,NaN,mst_214_B_l2.png,501,1_back,481
3,isolated,none,1,0.545707204857893,NA,A,none,NaN,mst_176_A_l1.png,501,1_back,482
3,compared,none,1,0.533797434635023,NA,A,none,NaN,mst_242_A_l2.png,501,1_back,483
3,compared,k,0,0.814915895691568,NA,B,none,NaN,mst_242_B_l2.png,501,1_back,484
3,compared,none,0,0.826534249711348,NA,A,j,-0.133111041999655,mst_073_A_l1.png,501,1_back,485
3,compared,k,1,0.718475223719348,NA,B,k,0.870283541997196,mst_073_B_l1.png,501,1_back,486
3,repeat,none,1,0.806090879679915,NA,A,none,NaN,mst_418_A_foil.png,501,1_back,487
3,repeat,j,1,0.553936769141647,NA,A,j,0.760580791000393,mst_418_A_foil.png,501,1_back,488
3,repeat,none,1,0.76153399208153,NA,A,none,NaN,mst_601_A_foil.png,501,1_back,489
3,repeat,j,1,0.771205378071688,NA,A,j,0.660824457998388,mst_601_A_foil.png,501,1_back,490
3,isolated,none,1,0.762132548527969,NA,B,none,NaN,mst_030_B_l1.png,501,1_back,491
3,compared,none,1,0.854696471296247,NA,A,none,NaN,mst_177_A_l1.png,501,1_back,492
3,compared,k,0,0.980060060748107,NA,B,none,NaN,mst_177_B_l1.png,501,1_back,493
3,compared,none,1,0.971207574182576,NA,A,none,NaN,mst_145_A_l1.png,501,1_back,494
3,compared,k,1,0.991681279060438,NA,B,k,1.02757274999749,mst_145_B_l1.png,501,1_back,495
3,compared,none,1,0.95945403154851,NA,A,none,NaN,mst_345_A_l2.png,501,1_back,496
3,compared,k,1,0.790593173904641,NA,B,k,0.854940624994924,mst_345_B_l2.png,501,1_back,497
3,repeat,none,1,0.785030518341495,NA,A,none,NaN,mst_444_A_foil.png,501,1_back,498
3,repeat,j,1,0.952073206012475,NA,A,j,1.16090312501183,mst_444_A_foil.png,501,1_back,499
3,compared,none,1,0.506514757454225,NA,A,none,NaN,mst_256_A_l2.png,501,1_back,500
3,compared,k,1,0.5328114824102,NA,B,k,0.929749832997913,mst_256_B_l2.png,501,1_back,501
3,isolated,none,1,0.671622590971425,NA,A,none,NaN,mst_323_A_l2.png,501,1_back,502
3,repeat,none,1,0.998397705951264,NA,A,none,NaN,mst_335_A_foil.png,501,1_back,503
3,repeat,j,1,0.744277003743976,NA,A,j,0.790620208994369,mst_335_A_foil.png,501,1_back,504
3,repeat,none,1,0.766713424655654,NA,A,none,NaN,mst_585_A_foil.png,501,1_back,505
3,repeat,j,1,0.912048307224456,NA,A,j,0.959943709007348,mst_585_A_foil.png,501,1_back,506
3,isolated,none,1,0.919535749065225,NA,B,none,NaN,mst_323_B_l2.png,501,1_back,507
3,compared,none,1,0.785887268392405,NA,A,none,NaN,mst_206_A_l2.png,501,1_back,508
3,compared,k,1,0.700207475925211,NA,B,k,0.880631416002871,mst_206_B_l2.png,501,1_back,509
3,isolated,none,1,0.914287464050783,NA,B,none,NaN,mst_093_B_l1.png,501,1_back,510
3,compared,none,1,0.511636127734717,NA,A,none,NaN,mst_310_A_l2.png,501,1_back,511
3,compared,k,0,0.534837285116434,NA,B,none,NaN,mst_310_B_l2.png,501,1_back,512
3,repeat,none,0,0.986583336924514,NA,A,k,-0.725131625003996,mst_144_A_foil.png,501,1_back,513
3,repeat,j,1,0.799710417753641,NA,A,j,0.785443459011731,mst_144_A_foil.png,501,1_back,514
3,isolated,none,1,0.75900682154383,NA,B,none,NaN,mst_125_B_l1.png,501,1_back,515
3,compared,none,1,0.794540201304197,NA,A,none,NaN,mst_047_A_l1.png,501,1_back,516
3,compared,k,0,0.726180988453076,NA,B,none,NaN,mst_047_B_l1.png,501,1_back,517
3,compared,none,1,0.640268331683374,NA,A,none,NaN,mst_227_A_l2.png,501,1_back,518
3,compared,k,1,0.800290554649083,NA,B,k,1.05150874999526,mst_227_B_l2.png,501,1_back,519
3,isolated,none,1,0.797368994345722,NA,B,none,NaN,mst_246_B_l2.png,501,1_back,520
3,isolated,none,1,0.971650350611063,NA,B,none,NaN,mst_176_B_l1.png,501,1_back,521
3,repeat,none,1,0.511366976038822,NA,A,none,NaN,mst_094_A_foil.png,501,1_back,522
3,repeat,j,1,0.565337204734522,NA,A,j,0.686714959010715,mst_094_A_foil.png,501,1_back,523
3,isolated,none,1,0.851061226133309,NA,B,none,NaN,mst_173_B_l1.png,501,1_back,524
3,isolated,none,1,0.684141228301418,NA,B,none,NaN,mst_357_B_l2.png,501,1_back,525
3,compared,none,1,0.681576461436657,NA,A,none,NaN,mst_166_A_l1.png,501,1_back,526
3,compared,k,0,0.692032239519674,NA,B,none,NaN,mst_166_B_l1.png,501,1_back,527
3,compared,none,1,0.856093513929946,NA,A,none,NaN,mst_096_A_l1.png,501,1_back,528
3,compared,k,1,0.937796942932446,NA,B,k,0.80099612500635,mst_096_B_l1.png,501,1_back,529
3,compared,none,1,0.621281506030296,NA,A,none,NaN,mst_186_A_l2.png,501,1_back,530
3,compared,k,1,0.786789425082053,NA,B,k,0.801477792003425,mst_186_B_l2.png,501,1_back,531
3,compared,none,1,0.595738969036526,NA,A,none,NaN,mst_174_A_l1.png,501,1_back,532
3,compared,k,1,0.83915838388246,NA,B,k,0.749876707996009,mst_174_B_l1.png,501,1_back,533
3,isolated,none,1,0.873361862211663,NA,B,none,NaN,mst_109_B_l1.png,501,1_back,534
3,isolated,none,1,0.950430601524196,NA,B,none,NaN,mst_340_B_l2.png,501,1_back,535
3,isolated,none,1,0.911064674899777,NA,B,none,NaN,mst_325_B_l2.png,501,1_back,536
3,repeat,none,1,0.926577093924807,NA,A,none,NaN,mst_174_A_foil.png,501,1_back,537
3,repeat,j,0,0.803167676160539,NA,A,none,NaN,mst_174_A_foil.png,501,1_back,538
3,compared,none,0,0.600740818750715,NA,A,j,-0.303859917010413,mst_269_A_l2.png,501,1_back,539
3,compared,k,1,0.800255965726387,NA,B,k,0.988907708000625,mst_269_B_l2.png,501,1_back,540
4,isolated,none,1,0.856235252742958,NA,A,none,NaN,mst_324_A_l2.png,501,1_back,541
4,isolated,none,1,0.946325317736208,NA,A,none,NaN,mst_132_A_l1.png,501,1_back,542
4,isolated,none,1,0.57874998911571,NA,A,none,NaN,mst_181_A_l2.png,501,1_back,543
4,repeat,none,1,0.582755825636276,NA,A,none,NaN,mst_684_A_foil.png,501,1_back,544
4,repeat,j,1,0.580586036680274,NA,A,j,1.01202558301156,mst_684_A_foil.png,501,1_back,545
4,isolated,none,0,0.915750083185263,NA,A,j,-0.763949625004898,mst_270_A_l2.png,501,1_back,546
4,repeat,none,1,0.896560847955958,NA,A,none,NaN,mst_031_A_foil.png,501,1_back,547
4,repeat,j,1,0.774686050175575,NA,A,j,0.717924999989918,mst_031_A_foil.png,501,1_back,548
4,repeat,none,1,0.553039483487979,NA,A,none,NaN,mst_136_A_foil.png,501,1_back,549
4,repeat,j,1,0.674202077399904,NA,A,j,0.657564124994678,mst_136_A_foil.png,501,1_back,550
4,compared,none,1,0.618128484709221,NA,A,none,NaN,mst_218_A_l2.png,501,1_back,551
4,compared,k,1,0.953773524857753,NA,B,k,0.907766292002634,mst_218_B_l2.png,501,1_back,552
4,repeat,none,1,0.986786094559883,NA,A,none,NaN,mst_138_A_foil.png,501,1_back,553
4,repeat,j,1,0.745667053000632,NA,A,j,0.818480375004583,mst_138_A_foil.png,501,1_back,554
4,compared,none,1,0.841990988462773,NA,A,none,NaN,mst_288_A_l2.png,501,1_back,555
4,compared,k,1,0.599134964435499,NA,B,k,0.916684374999022,mst_288_B_l2.png,501,1_back,556
4,compared,none,1,0.50633244781942,NA,A,none,NaN,mst_044_A_l1.png,501,1_back,557
4,compared,k,1,0.850983966169132,NA,B,k,0.774757084000157,mst_044_B_l1.png,501,1_back,558
4,repeat,none,1,0.508401167981595,NA,A,none,NaN,mst_048_A_foil.png,501,1_back,559
4,repeat,j,0,0.557339830698853,NA,A,none,NaN,mst_048_A_foil.png,501,1_back,560
4,compared,none,0,0.59358761065149,NA,A,j,-0.00971045800542925,mst_199_A_l2.png,501,1_back,561
4,compared,k,1,0.758415172264534,NA,B,k,0.866959791004774,mst_199_B_l2.png,501,1_back,562
4,isolated,none,1,0.865413458473455,NA,A,none,NaN,mst_095_A_l1.png,501,1_back,563
4,repeat,none,1,0.652608675479611,NA,A,none,NaN,mst_487_A_foil.png,501,1_back,564
4,repeat,j,1,0.829528945123845,NA,A,j,0.910081542009721,mst_487_A_foil.png,501,1_back,565
4,compared,none,1,0.757662937650019,NA,A,none,NaN,mst_229_A_l2.png,501,1_back,566
4,compared,k,0,0.935220733776913,NA,B,j,0.928349250010797,mst_229_B_l2.png,501,1_back,567
4,isolated,none,1,0.631651617874773,NA,A,none,NaN,mst_187_A_l2.png,501,1_back,568
4,compared,none,1,0.553524358865621,NA,A,none,NaN,mst_108_A_l1.png,501,1_back,569
4,compared,k,1,0.86948086218929,NA,B,k,0.881823999996413,mst_108_B_l1.png,501,1_back,570
4,compared,none,1,0.946617062706135,NA,A,none,NaN,mst_292_A_l2.png,501,1_back,571
4,compared,k,1,0.508735764718084,NA,B,k,0.735356124991085,mst_292_B_l2.png,501,1_back,572
4,repeat,none,1,0.510738926133168,NA,A,none,NaN,mst_152_A_foil.png,501,1_back,573
4,repeat,j,0,0.80978663102835,NA,A,none,NaN,mst_152_A_foil.png,501,1_back,574
4,isolated,none,0,0.871862354041305,NA,A,j,-0.624941417001537,mst_209_A_l2.png,501,1_back,575
4,compared,none,1,0.879820438579703,NA,A,none,NaN,mst_245_A_l2.png,501,1_back,576
4,compared,k,1,0.616646131755447,NA,B,k,1.1322580420092,mst_245_B_l2.png,501,1_back,577
4,repeat,none,1,0.519484470205853,NA,A,none,NaN,mst_049_A_foil.png,501,1_back,578
4,repeat,j,1,0.65857006615681,NA,A,j,1.19989383300708,mst_049_A_foil.png,501,1_back,579
4,isolated,none,1,0.667118384906719,NA,B,none,NaN,mst_132_B_l1.png,501,1_back,580
4,isolated,none,1,0.62794035093084,NA,A,none,NaN,mst_130_A_l1.png,501,1_back,581
4,isolated,none,1,0.754389503176172,NA,B,none,NaN,mst_187_B_l2.png,501,1_back,582
4,compared,none,1,0.541457264978396,NA,A,none,NaN,mst_079_A_l1.png,501,1_back,583
4,compared,k,1,0.794159578321305,NA,B,k,0.908025459008059,mst_079_B_l1.png,501,1_back,584
4,compared,none,1,0.52667838001629,NA,A,none,NaN,mst_268_A_l2.png,501,1_back,585
4,compared,k,1,0.657174544071277,NA,B,k,0.986562083999161,mst_268_B_l2.png,501,1_back,586
4,isolated,none,1,0.999390952050332,NA,B,none,NaN,mst_181_B_l2.png,501,1_back,587
4,repeat,none,1,0.776359796254162,NA,A,none,NaN,mst_411_A_foil.png,501,1_back,588
4,repeat,j,0,0.677431862734482,NA,A,k,1.44739220901101,mst_411_A_foil.png,501,1_back,589
4,isolated,none,1,0.829189994805546,NA,A,none,NaN,mst_124_A_l1.png,501,1_back,590
4,isolated,none,1,0.515850082248916,NA,B,none,NaN,mst_095_B_l1.png,501,1_back,591
4,compared,none,1,0.637677507807139,NA,A,none,NaN,mst_254_A_l2.png,501,1_back,592
4,compared,k,1,0.737327389373737,NA,B,k,0.977950042011798,mst_254_B_l2.png,501,1_back,593
4,repeat,none,1,0.507612539607125,NA,A,none,NaN,mst_208_A_foil.png,501,1_back,594
4,repeat,j,1,0.749885350328605,NA,A,j,0.751650208010687,mst_208_A_foil.png,501,1_back,595
4,isolated,none,1,0.643842550149481,NA,A,none,NaN,mst_027_A_l1.png,501,1_back,596
4,compared,none,1,0.717498578000502,NA,A,none,NaN,mst_211_A_l2.png,501,1_back,597
4,compared,k,0,0.605161101826634,NA,B,none,NaN,mst_211_B_l2.png,501,1_back,598
4,repeat,none,0,0.517432062361791,NA,A,k,0.0958054580114549,mst_550_A_foil.png,501,1_back,599
4,repeat,j,1,0.788962811581991,NA,A,j,0.686061290994985,mst_550_A_foil.png,501,1_back,600
4,isolated,none,1,0.751377167625526,NA,A,none,NaN,mst_336_A_l2.png,501,1_back,601
4,compared,none,1,0.521328540628672,NA,A,none,NaN,mst_241_A_l2.png,501,1_back,602
4,compared,k,1,0.878075378092031,NA,B,k,1.02281066699652,mst_241_B_l2.png,501,1_back,603
4,isolated,none,1,0.592216645821836,NA,A,none,NaN,mst_015_A_l1.png,501,1_back,604
4,isolated,none,1,0.890827698301275,NA,B,none,NaN,mst_130_B_l1.png,501,1_back,605
4,isolated,none,1,0.925950096574997,NA,A,none,NaN,mst_343_A_l2.png,501,1_back,606
4,isolated,none,1,0.632047233274757,NA,A,none,NaN,mst_236_A_l2.png,501,1_back,607
4,isolated,none,1,0.916851288447887,NA,A,none,NaN,mst_128_A_l1.png,501,1_back,608
4,isolated,none,1,0.519765895593735,NA,B,none,NaN,mst_343_B_l2.png,501,1_back,609
4,isolated,none,1,0.595659869613461,NA,A,none,NaN,mst_210_A_l2.png,501,1_back,610
4,isolated,none,1,0.841696913741027,NA,A,none,NaN,mst_122_A_l1.png,501,1_back,611
4,compared,none,1,0.51146663027103,NA,A,none,NaN,mst_104_A_l1.png,501,1_back,612
4,compared,k,0,0.654080763026898,NA,B,none,NaN,mst_104_B_l1.png,501,1_back,613
4,repeat,none,1,0.599301226128586,NA,A,none,NaN,mst_207_A_foil.png,501,1_back,614
4,repeat,j,1,0.784790260354005,NA,A,j,0.894545916991774,mst_207_A_foil.png,501,1_back,615
4,repeat,none,1,0.613691846201607,NA,A,none,NaN,mst_272_A_foil.png,501,1_back,616
4,repeat,j,1,0.725514005910445,NA,A,j,1.10776616699877,mst_272_A_foil.png,501,1_back,617
4,isolated,none,1,0.816690221990972,NA,A,none,NaN,mst_185_A_l2.png,501,1_back,618
4,isolated,none,1,0.769138141555045,NA,A,none,NaN,mst_231_A_l2.png,501,1_back,619
4,repeat,none,1,0.584060773425116,NA,A,none,NaN,mst_744_A_foil.png,501,1_back,620
4,repeat,j,1,0.681243822217528,NA,A,j,1.4414658750029,mst_744_A_foil.png,501,1_back,621
4,isolated,none,1,0.880225983079886,NA,B,none,NaN,mst_231_B_l2.png,501,1_back,622
4,repeat,none,1,0.93379717724329,NA,A,none,NaN,mst_632_A_foil.png,501,1_back,623
4,repeat,j,1,0.981691174516187,NA,A,j,0.804852332992596,mst_632_A_foil.png,501,1_back,624
4,compared,none,1,0.744229699280224,NA,A,none,NaN,mst_038_A_l1.png,501,1_back,625
4,compared,k,1,0.819186569334884,NA,B,k,0.879692375005106,mst_038_B_l1.png,501,1_back,626
4,isolated,none,1,0.715184614208883,NA,A,none,NaN,mst_117_A_l1.png,501,1_back,627
4,isolated,none,1,0.898136265576098,NA,A,none,NaN,mst_057_A_l1.png,501,1_back,628
4,isolated,none,1,0.740952297389536,NA,A,none,NaN,mst_133_A_l1.png,501,1_back,629
4,isolated,none,1,0.702011445360968,NA,A,none,NaN,mst_321_A_l2.png,501,1_back,630
4,isolated,none,1,0.539489032995232,NA,A,none,NaN,mst_107_A_l1.png,501,1_back,631
4,isolated,none,1,0.6200262680064,NA,B,none,NaN,mst_128_B_l1.png,501,1_back,632
4,compared,none,1,0.653672224193412,NA,A,none,NaN,mst_033_A_l1.png,501,1_back,633
4,compared,k,1,0.661259092884113,NA,B,k,1.22264966699004,mst_033_B_l1.png,501,1_back,634
4,isolated,none,1,0.685442021856534,NA,A,none,NaN,mst_264_A_l2.png,501,1_back,635
4,isolated,none,1,0.750001616704914,NA,A,none,NaN,mst_319_A_l2.png,501,1_back,636
4,repeat,none,1,0.693932874882225,NA,A,none,NaN,mst_362_A_foil.png,501,1_back,637
4,repeat,j,1,0.938447841868477,NA,A,j,0.924086416009231,mst_362_A_foil.png,501,1_back,638
4,compared,none,1,0.883761438694116,NA,A,none,NaN,mst_252_A_l2.png,501,1_back,639
4,compared,k,1,0.913456533196559,NA,B,k,0.878896291003912,mst_252_B_l2.png,501,1_back,640
4,compared,none,1,0.671818739250428,NA,A,none,NaN,mst_070_A_l1.png,501,1_back,641
4,compared,k,1,0.702271568525906,NA,B,k,0.935326791994157,mst_070_B_l1.png,501,1_back,642
4,isolated,none,1,0.805707472260475,NA,A,none,NaN,mst_064_A_l1.png,501,1_back,643
4,isolated,none,1,0.830263701143356,NA,B,none,NaN,mst_185_B_l2.png,501,1_back,644
4,repeat,none,1,0.694268455725508,NA,A,none,NaN,mst_693_A_foil.png,501,1_back,645
4,repeat,j,0,0.939228687511494,NA,A,k,0.956234540994046,mst_693_A_foil.png,501,1_back,646
4,isolated,none,1,0.635456301147618,NA,B,none,NaN,mst_264_B_l2.png,501,1_back,647
4,isolated,none,1,0.983042498952261,NA,A,none,NaN,mst_097_A_l1.png,501,1_back,648
4,compared,none,1,0.796036838958157,NA,A,none,NaN,mst_129_A_l1.png,501,1_back,649
4,compared,k,0,0.864111295456645,NA,B,j,0.850514124991605,mst_129_B_l1.png,501,1_back,650
4,isolated,none,1,0.810522991809605,NA,B,none,NaN,mst_319_B_l2.png,501,1_back,651
4,compared,none,1,0.984585956757813,NA,A,none,NaN,mst_251_A_l2.png,501,1_back,652
4,compared,k,1,0.98525729857171,NA,B,k,0.958038584009046,mst_251_B_l2.png,501,1_back,653
4,compared,none,1,0.947308409858275,NA,A,none,NaN,mst_293_A_l2.png,501,1_back,654
4,compared,k,0,0.936080156861637,NA,B,none,NaN,mst_293_B_l2.png,501,1_back,655
4,repeat,none,1,0.679120277349225,NA,A,none,NaN,mst_644_A_foil.png,501,1_back,656
4,repeat,j,1,0.89270445400051,NA,A,j,0.7546363750007,mst_644_A_foil.png,501,1_back,657
4,repeat,none,1,0.763904527602836,NA,A,none,NaN,mst_673_A_foil.png,501,1_back,658
4,repeat,j,1,0.571741392563427,NA,A,j,1.20899920800002,mst_673_A_foil.png,501,1_back,659
4,isolated,none,1,0.625539643347812,NA,B,none,NaN,mst_107_B_l1.png,501,1_back,660
4,isolated,none,1,0.783036653478059,NA,B,none,NaN,mst_336_B_l2.png,501,1_back,661
4,isolated,none,1,0.812761556299993,NA,B,none,NaN,mst_015_B_l1.png,501,1_back,662
4,isolated,none,1,0.860477131088517,NA,B,none,NaN,mst_097_B_l1.png,501,1_back,663
4,isolated,none,1,0.665278323249711,NA,B,none,NaN,mst_321_B_l2.png,501,1_back,664
4,compared,none,1,0.79229331564695,NA,A,none,NaN,mst_089_A_l1.png,501,1_back,665
4,compared,k,1,0.814227301798645,NA,B,k,0.987257834000047,mst_089_B_l1.png,501,1_back,666
4,compared,none,1,0.803440049811621,NA,A,none,NaN,mst_296_A_l2.png,501,1_back,667
4,compared,k,1,0.999258811725044,NA,B,k,1.09580904200266,mst_296_B_l2.png,501,1_back,668
4,compared,none,1,0.830094278488374,NA,A,none,NaN,mst_099_A_l1.png,501,1_back,669
4,compared,k,0,0.529937873523717,NA,B,none,NaN,mst_099_B_l1.png,501,1_back,670
4,repeat,none,0,0.913626657030366,NA,A,k,-0.817063833004795,mst_537_A_foil.png,501,1_back,671
4,repeat,j,1,0.597602157946505,NA,A,j,0.813143332998152,mst_537_A_foil.png,501,1_back,672
4,repeat,none,1,0.751714575270764,NA,A,none,NaN,mst_236_A_foil.png,501,1_back,673
4,repeat,j,1,0.622296254269455,NA,A,j,0.758102000007057,mst_236_A_foil.png,501,1_back,674
4,isolated,none,1,0.701002189322544,NA,B,none,NaN,mst_124_B_l1.png,501,1_back,675
4,isolated,none,1,0.541501634366544,NA,A,none,NaN,mst_118_A_l1.png,501,1_back,676
4,repeat,none,1,0.793917980192099,NA,A,none,NaN,mst_737_A_foil.png,501,1_back,677
4,repeat,j,1,0.572223032312754,NA,A,j,0.869856999997864,mst_737_A_foil.png,501,1_back,678
4,compared,none,1,0.873891846282985,NA,A,none,NaN,mst_050_A_l1.png,501,1_back,679
4,compared,k,0,0.94634454432754,NA,B,none,NaN,mst_050_B_l1.png,501,1_back,680
4,isolated,none,1,0.523192149234123,NA,A,none,NaN,mst_207_A_l2.png,501,1_back,681
4,compared,none,1,0.563021523419441,NA,A,none,NaN,mst_101_A_l1.png,501,1_back,682
4,compared,k,0,0.654259826881965,NA,B,none,NaN,mst_101_B_l1.png,501,1_back,683
4,repeat,none,1,0.681695753497358,NA,A,none,NaN,mst_352_A_foil.png,501,1_back,684
4,repeat,j,1,0.991029280608447,NA,A,j,0.744669375009835,mst_352_A_foil.png,501,1_back,685
4,repeat,none,1,0.63908144641452,NA,A,none,NaN,mst_125_A_foil.png,501,1_back,686
4,repeat,j,1,0.729046767788431,NA,A,j,1.26898862500093,mst_125_A_foil.png,501,1_back,687
4,repeat,none,1,0.808439578547245,NA,A,none,NaN,mst_536_A_foil.png,501,1_back,688
4,repeat,j,1,0.961300404316065,NA,A,j,1.35790691699367,mst_536_A_foil.png,501,1_back,689
4,isolated,none,1,0.52214071737912,NA,B,none,NaN,mst_057_B_l1.png,501,1_back,690
4,isolated,none,1,0.897891501829243,NA,B,none,NaN,mst_209_B_l2.png,501,1_back,691
4,isolated,none,1,0.59095415441669,NA,B,none,NaN,mst_117_B_l1.png,501,1_back,692
4,isolated,none,1,0.72510814238285,NA,B,none,NaN,mst_118_B_l1.png,501,1_back,693
4,isolated,none,1,0.563755817719478,NA,B,none,NaN,mst_064_B_l1.png,501,1_back,694
4,isolated,none,1,0.599322371360205,NA,B,none,NaN,mst_270_B_l2.png,501,1_back,695
4,isolated,none,1,0.738915597467258,NA,B,none,NaN,mst_210_B_l2.png,501,1_back,696
4,isolated,none,1,0.594973915692271,NA,B,none,NaN,mst_324_B_l2.png,501,1_back,697
4,repeat,none,1,0.558551488935337,NA,A,none,NaN,mst_415_A_foil.png,501,1_back,698
4,repeat,j,1,0.607451383699737,NA,A,j,0.885726374996011,mst_415_A_foil.png,501,1_back,699
4,isolated,none,1,0.647918657541109,NA,B,none,NaN,mst_027_B_l1.png,501,1_back,700
4,isolated,none,1,0.820965670179762,NA,B,none,NaN,mst_122_B_l1.png,501,1_back,701
4,repeat,none,1,0.874922116328937,NA,A,none,NaN,mst_717_A_foil.png,501,1_back,702
4,repeat,j,1,0.627903809421975,NA,A,j,1.07281070899626,mst_717_A_foil.png,501,1_back,703
4,repeat,none,1,0.939012672748794,NA,A,none,NaN,mst_697_A_foil.png,501,1_back,704
4,repeat,j,0,0.895189627467327,NA,A,none,NaN,mst_697_A_foil.png,501,1_back,705
4,repeat,none,1,0.654775074232669,NA,A,none,NaN,mst_242_A_foil.png,501,1_back,706
4,repeat,j,0,0.924290233070602,NA,A,none,NaN,mst_242_A_foil.png,501,1_back,707
4,compared,none,1,0.897817888220705,NA,A,none,NaN,mst_086_A_l1.png,501,1_back,708
4,compared,k,1,0.79064168602879,NA,B,k,0.934414582996396,mst_086_B_l1.png,501,1_back,709
4,compared,none,1,0.788869452626161,NA,A,none,NaN,mst_326_A_l2.png,501,1_back,710
4,compared,k,0,0.87082124639197,NA,B,none,NaN,mst_326_B_l2.png,501,1_back,711
4,isolated,none,1,0.89715104596489,NA,B,none,NaN,mst_133_B_l1.png,501,1_back,712
4,compared,none,1,0.959091036527678,NA,A,none,NaN,mst_175_A_l1.png,501,1_back,713
4,compared,k,1,0.635095038901327,NA,B,k,0.918160916000488,mst_175_B_l1.png,501,1_back,714
4,compared,none,1,0.579779214703509,NA,A,none,NaN,mst_013_A_l1.png,501,1_back,715
4,compared,k,0,0.537577672288938,NA,B,none,NaN,mst_013_B_l1.png,501,1_back,716
4,repeat,none,1,0.741555694701701,NA,A,none,NaN,mst_623_A_foil.png,501,1_back,717
4,repeat,j,0,0.62176361277124,NA,A,none,NaN,mst_623_A_foil.png,501,1_back,718
4,isolated,none,0,0.671376980628799,NA,B,j,-0.653857790995971,mst_236_B_l2.png,501,1_back,719
4,isolated,none,1,0.589972424677357,NA,B,none,NaN,mst_207_B_l2.png,501,1_back,720
1,init_junk,none,1,0.759671416213097,JUNK,J,none,NaN,mst_222_A_foil.png,501,2_back,1
1,init_junk,none,1,0.79167992645062,JUNK,J,none,NaN,mst_145_A_foil.png,501,2_back,2
1,isolated,none,1,0.645385685905403,A-N,A,none,NaN,mst_339_A_l2.png,501,2_back,3
1,novel,none,1,0.652547071907523,A-B,A,none,NaN,mst_189_A_l2.png,501,2_back,4
1,isolated,none,1,0.914009423356039,A-N,A,none,NaN,mst_279_A_l2.png,501,2_back,5
1,novel,k,1,0.757611415288829,A-B,B,k,0.982551375011099,mst_189_B_l2.png,501,2_back,6
1,novel,none,1,0.801154574737764,A-A,A,none,NaN,mst_197_A_l2.png,501,2_back,7
1,isolated,none,1,0.749985388562607,A-A,A,none,NaN,mst_196_A_l2.png,501,2_back,8
1,novel,j,1,0.576301297157254,A-A,A,j,1.40823525001178,mst_197_A_l2.png,501,2_back,9
1,isolated,j,0,0.654602328892838,A-A,A,none,NaN,mst_196_A_l2.png,501,2_back,10
1,novel,none,1,0.642932363789794,A-N,A,none,NaN,mst_007_A_l1.png,501,2_back,11
1,compared,none,1,0.684992026547332,A-A,A,none,NaN,mst_188_A_l2.png,501,2_back,12
1,isolated,none,1,0.53583920954689,A-A,A,none,NaN,mst_055_A_l1.png,501,2_back,13
1,compared,j,0,0.74572875344793,A-A,A,k,1.07886500000313,mst_188_A_l2.png,501,2_back,14
1,isolated,j,1,0.655289140884122,A-A,A,j,1.31855141700362,mst_055_A_l1.png,501,2_back,15
1,novel,none,1,0.966302353301883,A-A,A,none,NaN,mst_164_A_l1.png,501,2_back,16
1,isolated,none,1,0.962137095738727,A-N,A,none,NaN,mst_088_A_l1.png,501,2_back,17
1,novel,j,1,0.51364070538359,A-A,A,j,1.21404308300407,mst_164_A_l1.png,501,2_back,18
1,novel,none,1,0.542071560026415,A-A,A,none,NaN,mst_228_A_l2.png,501,2_back,19
1,compared,none,1,0.653314314999957,A-N,A,none,NaN,mst_232_A_l2.png,501,2_back,20
1,novel,j,1,0.804853698100728,A-A,A,j,1.01863520799088,mst_228_A_l2.png,501,2_back,21
1,isolated,none,1,0.773122027824781,A-N,A,none,NaN,mst_169_A_l1.png,501,2_back,22
1,compared,none,1,0.804064471163767,A-B,A,none,NaN,mst_276_A_l2.png,501,2_back,23
1,novel,none,1,0.890192494010954,A-A,A,none,NaN,mst_111_A_l1.png,501,2_back,24
1,compared,k,0,0.79865746572655,A-B,B,none,NaN,mst_276_B_l2.png,501,2_back,25
1,novel,j,0,0.981564143004947,A-A,A,k,-0.778503666006145,mst_111_A_l1.png,501,2_back,26
1,isolated,none,1,0.993734453039737,A-B,A,none,NaN,mst_059_A_l1.png,501,2_back,27
1,isolated,none,1,0.874795932385592,A-B,A,none,NaN,mst_217_A_l2.png,501,2_back,28
1,isolated,k,0,0.572801537261998,A-B,B,j,0.849292915998376,mst_059_B_l1.png,501,2_back,29
1,isolated,k,1,0.940149043083456,A-B,B,k,1.12214716599556,mst_217_B_l2.png,501,2_back,30
1,isolated,none,1,0.856261030136158,A-N,A,none,NaN,mst_259_A_l2.png,501,2_back,31
1,compared,none,1,0.84801289407242,A-N,A,none,NaN,mst_017_A_l1.png,501,2_back,32
1,novel,none,1,0.578583775209495,A-B,A,none,NaN,mst_078_A_l1.png,501,2_back,33
1,novel,none,1,0.889428161812203,A-N,A,none,NaN,mst_054_A_l1.png,501,2_back,34
1,novel,k,0,0.820547457734832,A-B,B,j,1.03409074999217,mst_078_B_l1.png,501,2_back,35
1,novel,none,1,0.951109884562764,A-A,A,none,NaN,mst_116_A_l1.png,501,2_back,36
1,isolated,none,1,0.686785811933969,A-B,A,none,NaN,mst_200_A_l2.png,501,2_back,37
1,novel,j,0,0.565285781064727,A-A,A,none,NaN,mst_116_A_l1.png,501,2_back,38
1,isolated,k,0,0.553968666834842,A-B,B,j,-0.532854458986549,mst_200_B_l2.png,501,2_back,39
1,compared,none,1,0.858845839902607,A-A,A,none,NaN,mst_289_A_l2.png,501,2_back,40
1,novel,none,1,0.874162066349324,A-N,A,none,NaN,mst_265_A_l2.png,501,2_back,41
1,compared,j,1,0.583464979768942,A-A,A,j,0.661584208006389,mst_289_A_l2.png,501,2_back,42
1,novel,none,1,0.904950523027494,A-N,A,none,NaN,mst_342_A_l2.png,501,2_back,43
1,isolated,none,1,0.963495974269938,A-B,A,none,NaN,mst_329_A_l2.png,501,2_back,44
1,novel,none,1,0.920190213308036,A-A,A,none,NaN,mst_141_A_l1.png,501,2_back,45
1,isolated,k,1,0.945097180401457,A-B,B,k,0.948959916990134,mst_329_B_l2.png,501,2_back,46
1,novel,j,1,0.953867348358214,A-A,A,j,0.998837874998571,mst_141_A_l1.png,501,2_back,47
1,compared,none,1,0.674863597794233,A-B,A,none,NaN,mst_071_A_l1.png,501,2_back,48
1,isolated,none,1,0.548457207069662,A-B,A,none,NaN,mst_160_A_l1.png,501,2_back,49
1,compared,k,1,0.990472357082665,A-B,B,k,0.741448874992784,mst_071_B_l1.png,501,2_back,50
1,isolated,k,0,0.781381787407858,A-B,B,none,NaN,mst_160_B_l1.png,501,2_back,51
1,novel,none,1,0.880400642696857,A-N,A,none,NaN,mst_255_A_l2.png,501,2_back,52
1,isolated,none,1,0.729940368084312,A-A,A,none,NaN,mst_266_A_l2.png,501,2_back,53
1,novel,none,1,0.964539446209421,A-N,A,none,NaN,mst_194_A_l2.png,501,2_back,54
1,isolated,j,1,0.571846140308058,A-A,A,j,1.08406537500559,mst_266_A_l2.png,501,2_back,55
1,compared,none,1,0.525607913201346,A-B,A,none,NaN,mst_018_A_l1.png,501,2_back,56
1,compared,none,1,0.657667390918204,A-N,A,none,NaN,mst_171_A_l1.png,501,2_back,57
1,compared,k,1,0.839325336530138,A-B,B,k,0.907457749999594,mst_018_B_l1.png,501,2_back,58
1,novel,none,1,0.603166204898675,A-B,A,none,NaN,mst_115_A_l1.png,501,2_back,59
1,compared,none,1,0.875418095180578,A-A,A,none,NaN,mst_022_A_l1.png,501,2_back,60
1,novel,k,0,0.932013471717915,A-B,B,j,1.31316125000012,mst_115_B_l1.png,501,2_back,61
1,compared,j,1,0.786885201574725,A-A,A,j,1.36283770800219,mst_022_A_l1.png,501,2_back,62
1,compared,none,1,0.638514654737916,A-A,A,none,NaN,mst_046_A_l1.png,501,2_back,63
1,compared,none,1,0.956579657437453,A-N,A,none,NaN,mst_032_A_l1.png,501,2_back,64
1,compared,j,1,0.629737041384549,A-A,A,j,0.863379791990155,mst_046_A_l1.png,501,2_back,65
1,compared,none,1,0.597923611232789,A-A,A,none,NaN,mst_155_A_l1.png,501,2_back,66
1,compared,none,1,0.970142839820911,A-B,A,none,NaN,mst_127_A_l1.png,501,2_back,67
1,compared,j,0,0.88794633041701,A-A,A,none,NaN,mst_155_A_l1.png,501,2_back,68
1,compared,k,1,0.66958818124392,A-B,B,k,-0.443733209001948,mst_127_B_l1.png,501,2_back,69
1,compared,none,1,0.68476940455734,A-N,A,none,NaN,mst_257_A_l2.png,501,2_back,70
1,novel,none,1,0.527948591051399,A-N,A,none,NaN,mst_138_A_l1.png,501,2_back,71
1,compared,none,1,0.850642609078455,A-A,A,none,NaN,mst_143_A_l1.png,501,2_back,72
1,isolated,none,1,0.775862078406407,A-N,A,none,NaN,mst_087_A_l1.png,501,2_back,73
1,compared,j,1,0.865559311426595,A-A,A,j,0.873195166001096,mst_143_A_l1.png,501,2_back,74
1,compared,none,1,0.576231336227797,A-B,A,none,NaN,mst_318_A_l2.png,501,2_back,75
1,novel,none,1,0.56640290708073,A-A,A,none,NaN,mst_353_A_l2.png,501,2_back,76
1,compared,k,0,0.632507063832897,A-B,B,j,0.943666499995743,mst_318_B_l2.png,501,2_back,77
1,novel,j,1,0.70259898074671,A-A,A,j,0.765645708001102,mst_353_A_l2.png,501,2_back,78
1,novel,none,1,0.75733914653421,A-B,A,none,NaN,mst_262_A_l2.png,501,2_back,79
1,novel,none,1,0.721050141334658,A-B,A,none,NaN,mst_001_A_l1.png,501,2_back,80
1,novel,k,0,0.846878501510191,A-B,B,j,0.901815290999366,mst_262_B_l2.png,501,2_back,81
1,novel,k,0,0.949291704137081,A-B,B,none,NaN,mst_001_B_l1.png,501,2_back,82
1,isolated,none,1,0.849393999434359,A-A,A,none,NaN,mst_074_A_l1.png,501,2_back,83
1,compared,none,1,0.944734011594163,A-N,A,none,NaN,mst_313_A_l2.png,501,2_back,84
1,isolated,j,1,0.775968147122245,A-A,A,j,1.23275083399494,mst_074_A_l1.png,501,2_back,85
1,compared,none,1,0.837861261575058,A-A,A,none,NaN,mst_092_A_l1.png,501,2_back,86
1,compared,none,1,0.663440384348231,A-N,A,none,NaN,mst_154_A_l1.png,501,2_back,87
1,compared,j,1,0.556905015632448,A-A,A,j,0.788446082995506,mst_092_A_l1.png,501,2_back,88
1,isolated,none,1,0.970149414568338,A-A,A,none,NaN,mst_029_A_l1.png,501,2_back,89
1,novel,none,1,0.507348282623998,A-B,A,none,NaN,mst_239_A_l2.png,501,2_back,90
1,isolated,j,0,0.541267710144072,A-A,A,none,NaN,mst_029_A_l1.png,501,2_back,91
1,novel,k,1,0.80088323611424,A-B,B,k,0.892032582996762,mst_239_B_l2.png,501,2_back,92
1,isolated,none,1,0.997976230376318,A-B,A,none,NaN,mst_140_A_l1.png,501,2_back,93
1,novel,none,1,0.914753605840036,A-B,A,none,NaN,mst_341_A_l2.png,501,2_back,94
1,isolated,k,0,0.696738136788523,A-B,B,none,NaN,mst_140_B_l1.png,501,2_back,95
1,novel,k,0,0.907565978621867,A-B,B,j,-0.852617333002854,mst_341_B_l2.png,501,2_back,96
1,isolated,none,1,0.740869736295758,A-A,A,none,NaN,mst_309_A_l2.png,501,2_back,97
1,isolated,none,1,0.599835574902677,A-B,A,none,NaN,mst_219_A_l2.png,501,2_back,98
1,isolated,j,0,0.519904179385013,A-A,A,none,NaN,mst_309_A_l2.png,501,2_back,99
1,isolated,k,0,0.8140529622571,A-B,B,j,-0.718089791000239,mst_219_B_l2.png,501,2_back,100
1,isolated,none,1,0.746925876483554,A-A,A,none,NaN,mst_230_A_l2.png,501,2_back,101
1,compared,none,1,0.568595523321761,A-A,A,none,NaN,mst_190_A_l2.png,501,2_back,102
1,isolated,j,0,0.650124376990062,A-A,A,none,NaN,mst_230_A_l2.png,501,2_back,103
1,compared,j,1,0.617475693296018,A-A,A,j,-0.379203333010082,mst_190_A_l2.png,501,2_back,104
1,novel,none,1,0.722881954118831,A-N,A,none,NaN,mst_157_A_l1.png,501,2_back,105
1,compared,none,1,0.929607922594517,A-N,A,none,NaN,mst_170_A_l1.png,501,2_back,106
1,novel,none,1,0.982890997560002,A-B,A,none,NaN,mst_195_A_l2.png,501,2_back,107
1,novel,none,1,0.832165988756333,A-A,A,none,NaN,mst_131_A_l1.png,501,2_back,108
1,novel,k,1,0.973745720246048,A-B,B,k,0.989306041010423,mst_195_B_l2.png,501,2_back,109
1,novel,j,0,0.803843842464962,A-A,A,none,NaN,mst_131_A_l1.png,501,2_back,110
1,isolated,none,0,0.865688437889782,A-N,A,k,-0.703501875002985,mst_113_A_l1.png,501,2_back,111
1,novel,none,1,0.641661213760688,A-A,A,none,NaN,mst_061_A_l1.png,501,2_back,112
1,isolated,none,1,0.627535323711779,A-A,A,none,NaN,mst_119_A_l1.png,501,2_back,113
1,novel,j,1,0.965167069980301,A-A,A,j,1.04486995900515,mst_061_A_l1.png,501,2_back,114
1,isolated,j,1,0.952629564511439,A-A,A,j,0.944711999996798,mst_119_A_l1.png,501,2_back,115
1,compared,none,1,0.768054086187718,A-B,A,none,NaN,mst_235_A_l2.png,501,2_back,116
1,isolated,none,1,0.673430631720604,A-A,A,none,NaN,mst_056_A_l1.png,501,2_back,117
1,compared,k,1,0.679101852467967,A-B,B,k,0.769592665994423,mst_235_B_l2.png,501,2_back,118
1,isolated,j,0,0.957337203031655,A-A,A,none,NaN,mst_056_A_l1.png,501,2_back,119
1,isolated,none,1,0.760164884889879,A-B,A,none,NaN,mst_146_A_l1.png,501,2_back,120
1,compared,none,1,0.75554414960374,A-B,A,none,NaN,mst_261_A_l2.png,501,2_back,121
1,isolated,k,1,0.900162243015918,A-B,B,k,1.17581483400136,mst_146_B_l1.png,501,2_back,122
1,compared,k,0,0.898446575825654,A-B,B,none,NaN,mst_261_B_l2.png,501,2_back,123
1,compared,none,1,0.716824853550642,A-A,A,none,NaN,mst_040_A_l1.png,501,2_back,124
1,compared,none,1,0.75460576081712,A-B,A,none,NaN,mst_010_A_l1.png,501,2_back,125
1,compared,j,0,0.934288225813265,A-A,A,none,NaN,mst_040_A_l1.png,501,2_back,126
1,compared,k,0,0.774701782774637,A-B,B,j,-0.639688666997245,mst_010_B_l1.png,501,2_back,127
1,compared,none,1,0.868087898937302,A-B,A,none,NaN,mst_271_A_l2.png,501,2_back,128
1,isolated,none,1,0.693189126379985,A-N,A,none,NaN,mst_026_A_l1.png,501,2_back,129
1,compared,k,1,0.900182901380331,A-B,B,k,0.821680708002532,mst_271_B_l2.png,501,2_back,130
1,novel,none,1,0.906233549258525,A-A,A,none,NaN,mst_330_A_l2.png,501,2_back,131
1,novel,none,1,0.522608985067888,A-B,A,none,NaN,mst_322_A_l2.png,501,2_back,132
1,novel,j,1,0.947561498479501,A-A,A,j,1.13105062498653,mst_330_A_l2.png,501,2_back,133
1,novel,k,0,0.822453408951315,A-B,B,none,NaN,mst_322_B_l2.png,501,2_back,134
1,isolated,none,0,0.904002738866793,A-B,A,k,-0.376980208005989,mst_205_A_l2.png,501,2_back,135
1,compared,none,1,0.526195689002804,A-B,A,none,NaN,mst_191_A_l2.png,501,2_back,136
1,isolated,k,0,0.970555680379271,A-B,B,none,NaN,mst_205_B_l2.png,501,2_back,137
1,compared,k,1,0.890938286917299,A-B,B,k,0.924383334000595,mst_191_B_l2.png,501,2_back,138
1,compared,none,1,0.95714404115266,A-N,A,none,NaN,mst_307_A_l2.png,501,2_back,139
1,novel,none,1,0.778705672335293,A-N,A,none,NaN,mst_150_A_l1.png,501,2_back,140
1,compared,none,1,0.707692703677507,A-A,A,none,NaN,mst_234_A_l2.png,501,2_back,141
1,novel,none,1,0.592298364669088,A-B,A,none,NaN,mst_051_A_l1.png,501,2_back,142
1,compared,j,1,0.706966458482459,A-A,A,j,1.42185687499295,mst_234_A_l2.png,501,2_back,143
1,novel,k,0,0.719002406401156,A-B,B,none,NaN,mst_051_B_l1.png,501,2_back,144
1,novel,none,0,0.72029225442424,A-N,A,j,-0.525897250001435,mst_301_A_l2.png,501,2_back,145
1,isolated,none,1,0.991882618546773,A-B,A,none,NaN,mst_360_A_l2.png,501,2_back,146
1,compared,none,1,0.671848310577586,A-N,A,none,NaN,mst_350_A_l2.png,501,2_back,147
1,isolated,k,0,0.994268324004876,A-B,B,none,NaN,mst_360_B_l2.png,501,2_back,148
1,isolated,none,0,0.912240294403679,A-N,A,j,-0.450744332993054,mst_163_A_l1.png,501,2_back,149
1,isolated,none,1,0.779690606196632,A-N,A,none,NaN,mst_260_A_l2.png,501,2_back,150
1,isolated,none,1,0.645512987117351,A-A,A,none,NaN,mst_258_A_l2.png,501,2_back,151
1,junk_foil,none,1,0.832025703243943,JUNK,J,none,NaN,mst_573_A_foil.png,501,2_back,152
1,isolated,j,1,0.720488054326799,A-A,A,j,1.21265358300298,mst_258_A_l2.png,501,2_back,153
1,end_junk,none,1,0.658319218271621,JUNK,J,none,NaN,mst_105_A_foil.png,501,2_back,154
1,end_junk,none,1,0.932084520772868,JUNK,J,none,NaN,mst_688_A_foil.png,501,2_back,155
1,end_junk,none,1,0.82612885339343,JUNK,J,none,NaN,mst_328_A_foil.png,501,2_back,156
1,end_junk,none,1,0.569512072913992,JUNK,J,none,NaN,mst_645_A_foil.png,501,2_back,157
1,end_junk,none,1,0.843386686742064,JUNK,J,none,NaN,mst_669_A_foil.png,501,2_back,158
2,init_junk,none,1,0.553879303691951,JUNK,J,none,NaN,mst_367_A_foil.png,501,2_back,159
2,init_junk,none,1,0.559671766948622,JUNK,J,none,NaN,mst_355_A_foil.png,501,2_back,160
2,isolated,none,1,0.512724921753984,A-N,A,none,NaN,mst_069_A_l1.png,501,2_back,161
2,compared,none,1,0.530541849766506,A-N,A,none,NaN,mst_278_A_l2.png,501,2_back,162
2,novel,none,1,0.763489728907274,A-A,A,none,NaN,mst_012_A_l1.png,501,2_back,163
2,isolated,none,1,0.919882241599446,A-A,A,none,NaN,mst_068_A_l1.png,501,2_back,164
2,novel,j,1,0.684286858263328,A-A,A,j,1.10302774999582,mst_012_A_l1.png,501,2_back,165
2,isolated,j,1,0.971442532010176,A-A,A,j,0.92092266700638,mst_068_A_l1.png,501,2_back,166
2,isolated,none,1,0.873824446304502,A-N,A,none,NaN,mst_247_A_l2.png,501,2_back,167
2,isolated,none,1,0.752513650675419,A-B,A,none,NaN,mst_042_A_l1.png,501,2_back,168
2,compared,none,1,0.753820830830219,A-B,A,none,NaN,mst_248_A_l2.png,501,2_back,169
2,isolated,k,0,0.587803316769338,A-B,B,j,0.907210416000453,mst_042_B_l1.png,501,2_back,170
2,compared,k,0,0.60640221798185,A-B,B,j,1.08212795900181,mst_248_B_l2.png,501,2_back,171
2,isolated,none,1,0.516998366338826,A-N,A,none,NaN,mst_077_A_l1.png,501,2_back,172
2,novel,none,1,0.689478391386334,A-N,A,none,NaN,mst_300_A_l2.png,501,2_back,173
2,isolated,none,1,0.834201342319913,A-N,A,none,NaN,mst_316_A_l2.png,501,2_back,174
2,isolated,none,1,0.503488309927472,A-A,A,none,NaN,mst_275_A_l2.png,501,2_back,175
2,novel,none,1,0.824732907181056,A-A,A,none,NaN,mst_298_A_l2.png,501,2_back,176
2,isolated,j,1,0.504115505934618,A-A,A,j,0.767990916996496,mst_275_A_l2.png,501,2_back,177
2,novel,j,1,0.715030390048876,A-A,A,j,0.921133833006024,mst_298_A_l2.png,501,2_back,178
2,isolated,none,1,0.997071214073588,A-B,A,none,NaN,mst_294_A_l2.png,501,2_back,179
2,isolated,none,1,0.776365544099807,A-A,A,none,NaN,mst_338_A_l2.png,501,2_back,180
2,isolated,k,1,0.722320669157767,A-B,B,k,0.959807958002784,mst_294_B_l2.png,501,2_back,181
2,isolated,j,1,0.886109081181674,A-A,A,j,0.908506500010844,mst_338_A_l2.png,501,2_back,182
2,novel,none,1,0.621093233182336,A-B,A,none,NaN,mst_067_A_l1.png,501,2_back,183
2,isolated,none,1,0.953866327433575,A-B,A,none,NaN,mst_063_A_l1.png,501,2_back,184
2,novel,k,1,0.709080512234012,A-B,B,k,1.1103387500043,mst_067_B_l1.png,501,2_back,185
2,isolated,k,0,0.909831725543087,A-B,B,j,1.01383349999378,mst_063_B_l1.png,501,2_back,186
2,isolated,none,1,0.549379546130137,A-A,A,none,NaN,mst_331_A_l2.png,501,2_back,187
2,novel,none,1,0.884905091522299,A-B,A,none,NaN,mst_082_A_l1.png,501,2_back,188
2,isolated,j,1,0.99949307303397,A-A,A,j,0.520372083003167,mst_331_A_l2.png,501,2_back,189
2,novel,k,0,0.598864457110964,A-B,B,none,NaN,mst_082_B_l1.png,501,2_back,190
2,compared,none,0,0.954660619352124,A-N,A,k,-0.786999624993769,mst_180_A_l1.png,501,2_back,191
2,novel,none,1,0.614315039295737,A-N,A,none,NaN,mst_041_A_l1.png,501,2_back,192
2,compared,none,1,0.802578327832075,A-B,A,none,NaN,mst_004_A_l1.png,501,2_back,193
2,novel,none,1,0.696635129045301,A-A,A,none,NaN,mst_216_A_l2.png,501,2_back,194
2,compared,k,1,0.788346098403741,A-B,B,k,0.810186750008143,mst_004_B_l1.png,501,2_back,195
2,novel,j,1,0.624302765536482,A-A,A,j,1.22493437500088,mst_216_A_l2.png,501,2_back,196
2,isolated,none,1,0.925047958585568,A-A,A,none,NaN,mst_359_A_l2.png,501,2_back,197
2,novel,none,1,0.639173522641102,A-B,A,none,NaN,mst_090_A_l1.png,501,2_back,198
2,isolated,j,1,0.638513533255523,A-A,A,j,0.949365459004184,mst_359_A_l2.png,501,2_back,199
2,novel,k,0,0.665469103593962,A-B,B,j,1.137943291993,mst_090_B_l1.png,501,2_back,200
2,novel,none,1,0.640471144854797,A-N,A,none,NaN,mst_083_A_l1.png,501,2_back,201
2,isolated,none,1,0.639546885755242,A-N,A,none,NaN,mst_023_A_l1.png,501,2_back,202
2,compared,none,1,0.585188819431089,A-N,A,none,NaN,mst_009_A_l1.png,501,2_back,203
2,novel,none,1,0.750397761627003,A-A,A,none,NaN,mst_144_A_l1.png,501,2_back,204
2,isolated,none,1,0.780629850050141,A-A,A,none,NaN,mst_003_A_l1.png,501,2_back,205
2,novel,j,1,0.84460195692015,A-A,A,j,1.4839187089965,mst_144_A_l1.png,501,2_back,206
2,isolated,j,1,0.813304379957901,A-A,A,j,1.09013929200592,mst_003_A_l1.png,501,2_back,207
2,compared,none,1,0.722636636776686,A-B,A,none,NaN,mst_280_A_l2.png,501,2_back,208
2,novel,none,1,0.582084356711738,A-A,A,none,NaN,mst_240_A_l2.png,501,2_back,209
2,compared,k,1,0.680238201747102,A-B,B,k,0.924881124999956,mst_280_B_l2.png,501,2_back,210
2,novel,j,1,0.594778236206301,A-A,A,j,0.943241541986936,mst_240_A_l2.png,501,2_back,211
2,compared,none,1,0.735380956074151,A-N,A,none,NaN,mst_215_A_l2.png,501,2_back,212
2,novel,none,1,0.862029619893062,A-B,A,none,NaN,mst_192_A_l2.png,501,2_back,213
2,isolated,none,1,0.887726272814592,A-A,A,none,NaN,mst_332_A_l2.png,501,2_back,214
2,novel,k,0,0.697814793646953,A-B,B,none,NaN,mst_192_B_l2.png,501,2_back,215
2,isolated,j,1,0.550208938480041,A-A,A,j,0.912286250008037,mst_332_A_l2.png,501,2_back,216
2,compared,none,1,0.939561930692049,A-N,A,none,NaN,mst_114_A_l1.png,501,2_back,217
2,novel,none,1,0.652692123198679,A-B,A,none,NaN,mst_352_A_l2.png,501,2_back,218
2,compared,none,1,0.826988725704835,A-B,A,none,NaN,mst_085_A_l1.png,501,2_back,219
2,novel,k,0,0.808396363960696,A-B,B,none,NaN,mst_352_B_l2.png,501,2_back,220
2,compared,k,1,0.661004070575681,A-B,B,k,1.34125216699613,mst_085_B_l1.png,501,2_back,221
2,compared,none,1,0.563269060017186,A-A,A,none,NaN,mst_021_A_l1.png,501,2_back,222
2,novel,none,1,0.563967625227378,A-N,A,none,NaN,mst_290_A_l2.png,501,2_back,223
2,compared,j,0,0.930176570586399,A-A,A,k,0.8495925419993,mst_021_A_l1.png,501,2_back,224
2,compared,none,1,0.890526244960209,A-N,A,none,NaN,mst_168_A_l1.png,501,2_back,225
2,compared,none,1,0.606355202995264,A-N,A,none,NaN,mst_201_A_l2.png,501,2_back,226
2,isolated,none,1,0.877193821294569,A-N,A,none,NaN,mst_120_A_l1.png,501,2_back,227
2,isolated,none,1,0.524881641400954,A-B,A,none,NaN,mst_238_A_l2.png,501,2_back,228
2,isolated,none,0,0.532072841744212,A-B,A,j,-0.303009791998193,mst_317_A_l2.png,501,2_back,229
2,isolated,k,0,0.767707163474948,A-B,B,j,0.81990154099185,mst_238_B_l2.png,501,2_back,230
2,isolated,k,1,0.999224257621212,A-B,B,k,1.23487933300203,mst_317_B_l2.png,501,2_back,231
2,novel,none,1,0.683527579040623,A-A,A,none,NaN,mst_016_A_l1.png,501,2_back,232
2,novel,none,1,0.71019681744187,A-N,A,none,NaN,mst_356_A_l2.png,501,2_back,233
2,novel,j,1,0.893952758053213,A-A,A,j,0.944345374999102,mst_016_A_l1.png,501,2_back,234
2,compared,none,1,0.943857212831809,A-A,A,none,NaN,mst_014_A_l1.png,501,2_back,235
2,isolated,none,1,0.705389508773474,A-N,A,none,NaN,mst_151_A_l1.png,501,2_back,236
2,compared,j,0,0.713971405731364,A-A,A,none,NaN,mst_014_A_l1.png,501,2_back,237
2,isolated,none,0,0.654343784776299,A-B,A,j,-0.523668875001022,mst_020_A_l1.png,501,2_back,238
2,novel,none,1,0.984340266436614,A-A,A,none,NaN,mst_225_A_l2.png,501,2_back,239
2,isolated,k,1,0.62344978365828,A-B,B,k,1.21883437500219,mst_020_B_l1.png,501,2_back,240
2,novel,j,1,0.677742452522873,A-A,A,j,1.09238904199447,mst_225_A_l2.png,501,2_back,241
2,compared,none,1,0.600050583396711,A-A,A,none,NaN,mst_106_A_l1.png,501,2_back,242
2,isolated,none,1,0.880838760636719,A-N,A,none,NaN,mst_024_A_l1.png,501,2_back,243
2,compared,j,1,0.579053787440475,A-A,A,j,1.00267450000683,mst_106_A_l1.png,501,2_back,244
2,novel,none,1,0.559263708387928,A-N,A,none,NaN,mst_008_A_l1.png,501,2_back,245
2,novel,none,1,0.65776315406258,A-N,A,none,NaN,mst_212_A_l2.png,501,2_back,246
2,compared,none,1,0.711503718041229,A-B,A,none,NaN,mst_184_A_l2.png,501,2_back,247
2,novel,none,1,0.8188305955233,A-A,A,none,NaN,mst_035_A_l1.png,501,2_back,248
2,compared,k,0,0.647236522471484,A-B,B,none,NaN,mst_184_B_l2.png,501,2_back,249
2,novel,j,1,0.865155339724948,A-A,A,j,0.928311833995394,mst_035_A_l1.png,501,2_back,250
2,isolated,none,1,0.717430551131589,A-B,A,none,NaN,mst_002_A_l1.png,501,2_back,251
2,novel,none,1,0.537712660784966,A-B,A,none,NaN,mst_308_A_l2.png,501,2_back,252
2,isolated,k,0,0.847950144881605,A-B,B,j,1.20866124999884,mst_002_B_l1.png,501,2_back,253
2,novel,k,0,0.510019509872744,A-B,B,j,0.812127333003446,mst_308_B_l2.png,501,2_back,254
2,isolated,none,1,0.752945976350403,A-A,A,none,NaN,mst_075_A_l1.png,501,2_back,255
2,novel,none,1,0.74210925347708,A-A,A,none,NaN,mst_103_A_l1.png,501,2_back,256
2,isolated,j,1,0.573240212370701,A-A,A,j,0.85574674999225,mst_075_A_l1.png,501,2_back,257
2,novel,j,0,0.807401228841056,A-A,A,k,1.09222704199783,mst_103_A_l1.png,501,2_back,258
2,isolated,none,1,0.898432986253246,A-B,A,none,NaN,mst_249_A_l2.png,501,2_back,259
2,novel,none,1,0.763932784051086,A-N,A,none,NaN,mst_183_A_l2.png,501,2_back,260
2,isolated,k,0,0.67757041343476,A-B,B,none,NaN,mst_249_B_l2.png,501,2_back,261
2,novel,none,1,0.619882706032969,A-N,A,none,NaN,mst_273_A_l2.png,501,2_back,262
2,novel,none,1,0.725137153855189,A-B,A,none,NaN,mst_222_A_l2.png,501,2_back,263
2,compared,none,1,0.956732930334888,A-N,A,none,NaN,mst_167_A_l1.png,501,2_back,264
2,novel,k,1,0.600892852714908,A-B,B,k,0.822064833002514,mst_222_B_l2.png,501,2_back,265
2,isolated,none,1,0.903518653442307,A-B,A,none,NaN,mst_221_A_l2.png,501,2_back,266
2,compared,none,1,0.564900954251813,A-B,A,none,NaN,mst_287_A_l2.png,501,2_back,267
2,isolated,k,0,0.54207716965649,A-B,B,none,NaN,mst_221_B_l2.png,501,2_back,268
2,compared,k,0,0.78812080069327,A-B,B,none,NaN,mst_287_B_l2.png,501,2_back,269
2,isolated,none,0,0.531459496856417,A-B,A,j,-0.16561520799587,mst_100_A_l1.png,501,2_back,270
2,novel,none,1,0.728619069100479,A-N,A,none,NaN,mst_178_A_l1.png,501,2_back,271
2,isolated,k,0,0.875760021957111,A-B,B,j,0.960038208999322,mst_100_B_l1.png,501,2_back,272
2,compared,none,1,0.762785670801235,A-A,A,none,NaN,mst_237_A_l2.png,501,2_back,273
2,compared,none,1,0.986789270968575,A-A,A,none,NaN,mst_314_A_l2.png,501,2_back,274
2,compared,j,1,0.699577517801551,A-A,A,j,1.19630450000113,mst_237_A_l2.png,501,2_back,275
2,compared,j,0,0.635264052464707,A-A,A,k,0.938490582993836,mst_314_A_l2.png,501,2_back,276
2,compared,none,1,0.960278543233731,A-A,A,none,NaN,mst_306_A_l2.png,501,2_back,277
2,novel,none,1,0.80590094400842,A-A,A,none,NaN,mst_284_A_l2.png,501,2_back,278
2,compared,j,0,0.500877082435546,A-A,A,none,NaN,mst_306_A_l2.png,501,2_back,279
2,novel,j,0,0.529703474673,A-A,A,k,-0.432184541001334,mst_284_A_l2.png,501,2_back,280
2,compared,none,1,0.639296998958925,A-A,A,none,NaN,mst_094_A_l1.png,501,2_back,281
2,compared,none,1,0.801478018988664,A-B,A,none,NaN,mst_295_A_l2.png,501,2_back,282
2,compared,j,0,0.903427691454966,A-A,A,none,NaN,mst_094_A_l1.png,501,2_back,283
2,compared,k,0,0.572894544593365,A-B,B,none,NaN,mst_295_B_l2.png,501,2_back,284
2,compared,none,1,0.872070328674582,A-N,A,none,NaN,mst_223_A_l2.png,501,2_back,285
2,compared,none,1,0.752237867967394,A-N,A,none,NaN,mst_034_A_l1.png,501,2_back,286
2,isolated,none,1,0.644763816098231,A-A,A,none,NaN,mst_165_A_l1.png,501,2_back,287
2,novel,none,1,0.700815305144865,A-B,A,none,NaN,mst_147_A_l1.png,501,2_back,288
2,isolated,j,0,0.663312976478704,A-A,A,none,NaN,mst_165_A_l1.png,501,2_back,289
2,novel,k,0,0.755089594193638,A-B,B,none,NaN,mst_147_B_l1.png,501,2_back,290
2,compared,none,1,0.867979283090192,A-A,A,none,NaN,mst_304_A_l2.png,501,2_back,291
2,novel,none,1,0.980188094268132,A-B,A,none,NaN,mst_091_A_l1.png,501,2_back,292
2,compared,j,1,0.74383969490971,A-A,A,j,0.863572541988106,mst_304_A_l2.png,501,2_back,293
2,novel,k,0,0.830089186218177,A-B,B,j,1.06069041600858,mst_091_B_l1.png,501,2_back,294
2,compared,none,1,0.863566579688712,A-B,A,none,NaN,mst_153_A_l1.png,501,2_back,295
2,isolated,none,1,0.619008057090949,A-N,A,none,NaN,mst_311_A_l2.png,501,2_back,296
2,compared,k,1,0.742105688103338,A-B,B,k,1.04465491700103,mst_153_B_l1.png,501,2_back,297
2,compared,none,1,0.559879097259246,A-A,A,none,NaN,mst_305_A_l2.png,501,2_back,298
2,compared,none,1,0.742633632956007,A-B,A,none,NaN,mst_299_A_l2.png,501,2_back,299
2,compared,j,1,0.697427104626949,A-A,A,j,0.930542207992403,mst_305_A_l2.png,501,2_back,300
2,compared,k,1,0.874764231225813,A-B,B,k,1.09966862500005,mst_299_B_l2.png,501,2_back,301
2,isolated,none,1,0.946329186533387,A-A,A,none,NaN,mst_351_A_l2.png,501,2_back,302
2,novel,none,1,0.89065574934202,A-B,A,none,NaN,mst_011_A_l1.png,501,2_back,303
2,isolated,j,0,0.747308490015457,A-A,A,none,NaN,mst_351_A_l2.png,501,2_back,304
2,novel,k,1,0.732182533811518,A-B,B,k,1.21060879199649,mst_011_B_l1.png,501,2_back,305
2,compared,none,1,0.900185995593247,A-B,A,none,NaN,mst_084_A_l1.png,501,2_back,306
2,compared,none,1,0.522169777279923,A-A,A,none,NaN,mst_148_A_l1.png,501,2_back,307
2,compared,k,1,0.87918871076633,A-B,B,k,0.921083042005193,mst_084_B_l1.png,501,2_back,308
2,compared,j,0,0.979295137461019,A-A,A,none,NaN,mst_148_A_l1.png,501,2_back,309
2,isolated,none,1,0.722182042344994,A-N,A,none,NaN,mst_286_A_l2.png,501,2_back,310
2,padding_junk,none,1,0.771948858171331,JUNK,J,none,NaN,mst_513_A_foil.png,501,2_back,311
2,junk_foil,none,1,0.617326184445424,JUNK,J,none,NaN,mst_371_A_foil.png,501,2_back,312
2,end_junk,none,1,0.899197733565109,JUNK,J,none,NaN,mst_060_A_foil.png,501,2_back,313
2,end_junk,none,1,0.818474736105246,JUNK,J,none,NaN,mst_149_A_foil.png,501,2_back,314
2,end_junk,none,1,0.627431433996814,JUNK,J,none,NaN,mst_600_A_foil.png,501,2_back,315
2,end_junk,none,1,0.513677154235161,JUNK,J,none,NaN,mst_309_A_foil.png,501,2_back,316
2,end_junk,none,1,0.692429800048327,JUNK,J,none,NaN,mst_441_A_foil.png,501,2_back,317
3,init_junk,none,1,0.839854325856953,JUNK,J,none,NaN,mst_746_A_foil.png,501,2_back,318
3,init_junk,none,1,0.886454321783707,JUNK,J,none,NaN,mst_648_A_foil.png,501,2_back,319
3,novel,none,1,0.713587779526367,A-B,A,none,NaN,mst_065_A_l1.png,501,2_back,320
3,compared,none,1,0.501985736294635,A-N,A,none,NaN,mst_269_A_l2.png,501,2_back,321
3,novel,k,1,0.822587689131128,A-B,B,k,1.03572291700402,mst_065_B_l1.png,501,2_back,322
3,novel,none,1,0.812750329735147,A-N,A,none,NaN,mst_253_A_l2.png,501,2_back,323
3,compared,none,1,0.690893730876159,A-B,A,none,NaN,mst_203_A_l2.png,501,2_back,324
3,compared,none,1,0.849818253469419,A-A,A,none,NaN,mst_135_A_l1.png,501,2_back,325
3,compared,k,0,0.899820168582797,A-B,B,j,1.17090633299085,mst_203_B_l2.png,501,2_back,326
3,compared,j,1,0.680684595028432,A-A,A,j,0.983280125001329,mst_135_A_l1.png,501,2_back,327
3,isolated,none,1,0.915503608847225,A-A,A,none,NaN,mst_125_A_l1.png,501,2_back,328
3,novel,none,1,0.576144315831203,A-N,A,none,NaN,mst_152_A_l1.png,501,2_back,329
3,isolated,j,1,0.930682175994528,A-A,A,j,1.03182324999943,mst_125_A_l1.png,501,2_back,330
3,isolated,none,1,0.808193598437449,A-N,A,none,NaN,mst_340_A_l2.png,501,2_back,331
3,isolated,none,1,0.595611994051829,A-B,A,none,NaN,mst_214_A_l2.png,501,2_back,332
3,isolated,none,1,0.541349699833311,A-N,A,none,NaN,mst_277_A_l2.png,501,2_back,333
3,isolated,k,0,0.849058231130299,A-B,B,j,1.24160904198652,mst_214_B_l2.png,501,2_back,334
3,isolated,none,1,0.574210302967531,A-N,A,none,NaN,mst_325_A_l2.png,501,2_back,335
3,isolated,none,1,0.88960551212437,A-A,A,none,NaN,mst_358_A_l2.png,501,2_back,336
3,isolated,none,1,0.879588628956351,A-A,A,none,NaN,mst_357_A_l2.png,501,2_back,337
3,isolated,j,1,0.5669395618269,A-A,A,j,0.898382708997815,mst_358_A_l2.png,501,2_back,338
3,isolated,j,1,0.938378978707354,A-A,A,j,0.999157584010391,mst_357_A_l2.png,501,2_back,339
3,novel,none,1,0.79429439229908,A-A,A,none,NaN,mst_349_A_l2.png,501,2_back,340
3,compared,none,1,0.762990599430651,A-B,A,none,NaN,mst_145_A_l1.png,501,2_back,341
3,novel,j,1,0.835431729933667,A-A,A,j,0.90850787499221,mst_349_A_l2.png,501,2_back,342
3,compared,k,1,0.522178458438233,A-B,B,k,1.11728979198961,mst_145_B_l1.png,501,2_back,343
3,compared,none,1,0.937363999429985,A-B,A,none,NaN,mst_126_A_l1.png,501,2_back,344
3,novel,none,1,0.955282542651809,A-N,A,none,NaN,mst_327_A_l2.png,501,2_back,345
3,compared,k,0,0.919623697242927,A-B,B,j,1.04146291701181,mst_126_B_l1.png,501,2_back,346
3,compared,none,1,0.745196418875597,A-N,A,none,NaN,mst_263_A_l2.png,501,2_back,347
3,novel,none,1,0.78399222653033,A-A,A,none,NaN,mst_080_A_l1.png,501,2_back,348
3,isolated,none,1,0.979282971374904,A-A,A,none,NaN,mst_176_A_l1.png,501,2_back,349
3,novel,j,0,0.57169395843715,A-A,A,k,1.39567937499669,mst_080_A_l1.png,501,2_back,350
3,isolated,j,1,0.528096243303261,A-A,A,j,1.30405870800314,mst_176_A_l1.png,501,2_back,351
3,isolated,none,1,0.630722905006992,A-N,A,none,NaN,mst_142_A_l1.png,501,2_back,352
3,novel,none,1,0.970477151278074,A-A,A,none,NaN,mst_272_A_l2.png,501,2_back,353
3,compared,none,1,0.738192507204388,A-A,A,none,NaN,mst_096_A_l1.png,501,2_back,354
3,novel,j,1,0.726998050171112,A-A,A,j,0.872739583006478,mst_272_A_l2.png,501,2_back,355
3,compared,j,1,0.966161325264005,A-A,A,j,0.774090083999909,mst_096_A_l1.png,501,2_back,356
3,novel,none,1,0.597598914386133,A-B,A,none,NaN,mst_037_A_l1.png,501,2_back,357
3,novel,none,1,0.770148588324952,A-B,A,none,NaN,mst_347_A_l2.png,501,2_back,358
3,novel,k,1,0.728051754006881,A-B,B,k,0.706508582996321,mst_037_B_l1.png,501,2_back,359
3,novel,k,1,0.52590582454482,A-B,B,k,1.12890400001197,mst_347_B_l2.png,501,2_back,360
3,isolated,none,1,0.783505379862687,A-B,A,none,NaN,mst_045_A_l1.png,501,2_back,361
3,novel,none,1,0.554375219649841,A-N,A,none,NaN,mst_303_A_l2.png,501,2_back,362
3,isolated,k,1,0.948372942108229,A-B,B,k,1.01844749999873,mst_045_B_l1.png,501,2_back,363
3,compared,none,1,0.60876592534855,A-N,A,none,NaN,mst_139_A_l1.png,501,2_back,364
3,compared,none,0,0.978691381329449,A-A,A,k,-0.833517416991526,mst_227_A_l2.png,501,2_back,365
3,novel,none,1,0.749651930869943,A-A,A,none,NaN,mst_058_A_l1.png,501,2_back,366
3,compared,j,0,0.746425307075937,A-A,A,k,1.36042687499139,mst_227_A_l2.png,501,2_back,367
3,novel,j,1,0.773727508072696,A-A,A,j,1.19148266599223,mst_058_A_l1.png,501,2_back,368
3,novel,none,1,0.660202529002006,A-A,A,none,NaN,mst_025_A_l1.png,501,2_back,369
3,compared,none,1,0.663178373362729,A-B,A,none,NaN,mst_334_A_l2.png,501,2_back,370
3,novel,j,0,0.855892286740823,A-A,A,k,1.07625470799394,mst_025_A_l1.png,501,2_back,371
3,compared,k,0,0.712838822137444,A-B,B,j,1.16047291699215,mst_334_B_l2.png,501,2_back,372
3,compared,none,1,0.716656333831672,A-N,A,none,NaN,mst_204_A_l2.png,501,2_back,373
3,isolated,none,1,0.69830332201068,A-B,A,none,NaN,mst_233_A_l2.png,501,2_back,374
3,isolated,none,1,0.58503859922179,A-B,A,none,NaN,mst_136_A_l1.png,501,2_back,375
3,isolated,k,1,0.579569496612258,A-B,B,k,1.18469591600297,mst_233_B_l2.png,501,2_back,376
3,isolated,k,0,0.977495874298491,A-B,B,j,1.06612641600077,mst_136_B_l1.png,501,2_back,377
3,novel,none,1,0.82817124116957,A-B,A,none,NaN,mst_161_A_l1.png,501,2_back,378
3,isolated,none,1,0.603449491186719,A-A,A,none,NaN,mst_246_A_l2.png,501,2_back,379
3,novel,k,0,0.650484167406644,A-B,B,none,NaN,mst_161_B_l1.png,501,2_back,380
3,isolated,j,0,0.537236991418261,A-A,A,k,-0.32631516699621,mst_246_A_l2.png,501,2_back,381
3,isolated,none,1,0.676952551134378,A-N,A,none,NaN,mst_274_A_l2.png,501,2_back,382
3,novel,none,1,0.870863238204525,A-N,A,none,NaN,mst_052_A_l1.png,501,2_back,383
3,compared,none,1,0.566482632674849,A-N,A,none,NaN,mst_242_A_l2.png,501,2_back,384
3,novel,none,1,0.68550107318342,A-A,A,none,NaN,mst_137_A_l1.png,501,2_back,385
3,novel,none,1,0.751553344075934,A-A,A,none,NaN,mst_102_A_l1.png,501,2_back,386
3,novel,j,1,0.935997569196102,A-A,A,j,0.880577958989306,mst_137_A_l1.png,501,2_back,387
3,novel,j,0,0.889885799858212,A-A,A,none,NaN,mst_102_A_l1.png,501,2_back,388
3,novel,none,1,0.548557492072522,A-A,A,none,NaN,mst_162_A_l1.png,501,2_back,389
3,isolated,none,1,0.592017385776297,A-B,A,none,NaN,mst_323_A_l2.png,501,2_back,390
3,novel,j,0,0.882033816331048,A-A,A,none,NaN,mst_162_A_l1.png,501,2_back,391
3,isolated,k,1,0.659297404864527,A-B,B,k,1.05375391700363,mst_323_B_l2.png,501,2_back,392
3,novel,none,1,0.511319089613193,A-B,A,none,NaN,mst_220_A_l2.png,501,2_back,393
3,compared,none,1,0.787589312108268,A-A,A,none,NaN,mst_098_A_l1.png,501,2_back,394
3,novel,k,1,0.973592995380611,A-B,B,k,1.02708291700401,mst_220_B_l2.png,501,2_back,395
3,compared,j,0,0.799524478659432,A-A,A,k,0.871599042002345,mst_098_A_l1.png,501,2_back,396
3,compared,none,1,0.590927474852711,A-B,A,none,NaN,mst_256_A_l2.png,501,2_back,397
3,isolated,none,1,0.567628709663581,A-A,A,none,NaN,mst_109_A_l1.png,501,2_back,398
3,compared,k,0,0.805275535146549,A-B,B,none,NaN,mst_256_B_l2.png,501,2_back,399
3,isolated,j,0,0.584149670979638,A-A,A,k,1.10190224999678,mst_109_A_l1.png,501,2_back,400
3,compared,none,1,0.920494988702881,A-N,A,none,NaN,mst_281_A_l2.png,501,2_back,401
3,novel,none,0,0.712905518291968,A-N,A,k,1.41368583300209,mst_202_A_l2.png,501,2_back,402
3,novel,none,1,0.869084219352799,A-A,A,none,NaN,mst_112_A_l1.png,501,2_back,403
3,novel,none,0,0.680051956655547,A-B,A,k,-0.101731957998709,mst_267_A_l2.png,501,2_back,404
3,novel,j,0,0.937384864066905,A-A,A,k,1.45310241599509,mst_112_A_l1.png,501,2_back,405
3,novel,k,0,0.729771036511955,A-B,B,none,NaN,mst_267_B_l2.png,501,2_back,406
3,isolated,none,1,0.591118172949585,A-N,A,none,NaN,mst_224_A_l2.png,501,2_back,407
3,compared,none,1,0.578113003691469,A-N,A,none,NaN,mst_177_A_l1.png,501,2_back,408
3,isolated,none,1,0.570501908891943,A-B,A,none,NaN,mst_297_A_l2.png,501,2_back,409
3,novel,none,1,0.840076995445338,A-B,A,none,NaN,mst_348_A_l2.png,501,2_back,410
3,isolated,k,1,0.58671314997732,A-B,B,k,0.879146499995841,mst_297_B_l2.png,501,2_back,411
3,novel,k,0,0.897663428710747,A-B,B,j,1.09925641599693,mst_348_B_l2.png,501,2_back,412
3,novel,none,1,0.628105845479705,A-N,A,none,NaN,mst_337_A_l2.png,501,2_back,413
3,compared,none,1,0.541233817723529,A-N,A,none,NaN,mst_166_A_l1.png,501,2_back,414
3,compared,none,1,0.602016243337276,A-B,A,none,NaN,mst_345_A_l2.png,501,2_back,415
3,compared,none,1,0.789776716160718,A-N,A,none,NaN,mst_072_A_l1.png,501,2_back,416
3,compared,k,1,0.924343359381828,A-B,B,k,1.19888616699609,mst_345_B_l2.png,501,2_back,417
3,isolated,none,1,0.899947746580487,A-N,A,none,NaN,mst_159_A_l1.png,501,2_back,418
3,isolated,none,1,0.687892378645045,A-A,A,none,NaN,mst_193_A_l2.png,501,2_back,419
3,compared,none,1,0.965972620726894,A-A,A,none,NaN,mst_048_A_l1.png,501,2_back,420
3,isolated,j,1,0.892047345458868,A-A,A,j,1.03715812499286,mst_193_A_l2.png,501,2_back,421
3,compared,j,1,0.990159150216962,A-A,A,j,1.01818700000877,mst_048_A_l1.png,501,2_back,422
3,isolated,none,1,0.922380450008761,A-N,A,none,NaN,mst_173_A_l1.png,501,2_back,423
3,compared,none,1,0.892827672651394,A-B,A,none,NaN,mst_043_A_l1.png,501,2_back,424
3,novel,none,1,0.869594737091274,A-B,A,none,NaN,mst_282_A_l2.png,501,2_back,425
3,compared,k,0,0.620209460317195,A-B,B,j,0.982449917006306,mst_043_B_l1.png,501,2_back,426
3,novel,k,0,0.984552223837912,A-B,B,none,NaN,mst_282_B_l2.png,501,2_back,427
3,compared,none,1,0.532571459824981,A-B,A,none,NaN,mst_186_A_l2.png,501,2_back,428
3,compared,none,1,0.998317607147894,A-B,A,none,NaN,mst_073_A_l1.png,501,2_back,429
3,compared,k,0,0.763402204170351,A-B,B,j,0.952747249990352,mst_186_B_l2.png,501,2_back,430
3,compared,k,0,0.608653218476647,A-B,B,j,0.907931499998085,mst_073_B_l1.png,501,2_back,431
3,isolated,none,1,0.676015542392566,A-B,A,none,NaN,mst_105_A_l1.png,501,2_back,432
3,isolated,none,1,0.52062960744808,A-A,A,none,NaN,mst_049_A_l1.png,501,2_back,433
3,isolated,k,0,0.671402821083485,A-B,B,j,0.902690000002622,mst_105_B_l1.png,501,2_back,434
3,isolated,j,1,0.551666735555253,A-A,A,j,0.829151750003803,mst_049_A_l1.png,501,2_back,435
3,compared,none,1,0.902027528491126,A-A,A,none,NaN,mst_206_A_l2.png,501,2_back,436
3,isolated,none,1,0.87491461991158,A-A,A,none,NaN,mst_158_A_l1.png,501,2_back,437
3,compared,j,1,0.866060410169845,A-A,A,j,1.02323029199033,mst_206_A_l2.png,501,2_back,438
3,isolated,j,0,0.543339290187233,A-A,A,none,NaN,mst_158_A_l1.png,501,2_back,439
3,compared,none,1,0.540081705183822,A-A,A,none,NaN,mst_208_A_l2.png,501,2_back,440
3,isolated,none,1,0.777540157054393,A-B,A,none,NaN,mst_062_A_l1.png,501,2_back,441
3,compared,j,0,0.502637819613888,A-A,A,k,0.968280250002863,mst_208_A_l2.png,501,2_back,442
3,isolated,k,0,0.79666172492691,A-B,B,none,NaN,mst_062_B_l1.png,501,2_back,443
3,isolated,none,1,0.928507458827483,A-A,A,none,NaN,mst_283_A_l2.png,501,2_back,444
3,novel,none,1,0.531752082078286,A-N,A,none,NaN,mst_006_A_l1.png,501,2_back,445
3,isolated,j,0,0.890259992453487,A-A,A,k,1.17307512499974,mst_283_A_l2.png,501,2_back,446
3,isolated,none,1,0.536717928461529,A-N,A,none,NaN,mst_093_A_l1.png,501,2_back,447
3,novel,none,1,0.796111877506846,A-N,A,none,NaN,mst_333_A_l2.png,501,2_back,448
3,isolated,none,1,0.818721195336133,A-B,A,none,NaN,mst_172_A_l1.png,501,2_back,449
3,compared,none,1,0.563250479581588,A-A,A,none,NaN,mst_344_A_l2.png,501,2_back,450
3,isolated,k,0,0.729176429835099,A-B,B,none,NaN,mst_172_B_l1.png,501,2_back,451
3,compared,j,0,0.801841062624094,A-A,A,k,1.22765304200584,mst_344_A_l2.png,501,2_back,452
3,compared,none,1,0.8110410198223,A-N,A,none,NaN,mst_005_A_l1.png,501,2_back,453
3,isolated,none,1,0.542506578117853,A-N,A,none,NaN,mst_312_A_l2.png,501,2_back,454
3,compared,none,1,0.582296459848024,A-A,A,none,NaN,mst_047_A_l1.png,501,2_back,455
3,novel,none,1,0.948691656896334,A-B,A,none,NaN,mst_226_A_l2.png,501,2_back,456
3,compared,j,1,0.554049161617482,A-A,A,j,1.23626179200073,mst_047_A_l1.png,501,2_back,457
3,novel,k,0,0.989310183016594,A-B,B,j,0.954864292012644,mst_226_B_l2.png,501,2_back,458
3,isolated,none,1,0.679562863400739,A-B,A,none,NaN,mst_030_A_l1.png,501,2_back,459
3,compared,none,1,0.549943411039795,A-A,A,none,NaN,mst_174_A_l1.png,501,2_back,460
3,isolated,k,0,0.762900523992684,A-B,B,none,NaN,mst_030_B_l1.png,501,2_back,461
3,compared,j,0,0.634391494987745,A-A,A,none,NaN,mst_174_A_l1.png,501,2_back,462
3,compared,none,1,0.971670304282388,A-B,A,none,NaN,mst_310_A_l2.png,501,2_back,463
3,novel,none,1,0.871026177533894,A-N,A,none,NaN,mst_031_A_l1.png,501,2_back,464
3,compared,k,1,0.819530016660965,A-B,B,k,0.935615082998993,mst_310_B_l2.png,501,2_back,465
3,novel,none,1,0.924247523216979,A-A,A,none,NaN,mst_019_A_l1.png,501,2_back,466
3,novel,none,1,0.531249987451692,A-B,A,none,NaN,mst_354_A_l2.png,501,2_back,467
3,novel,j,1,0.782302640430276,A-A,A,j,1.21233370799746,mst_019_A_l1.png,501,2_back,468
